File: data/EDX_reports/site 4_Spectrum 8.txt
#FORMAT      : EMSA/MAS Spectral Data File
#VERSION     : 1.0
#TITLE       : Spectrum 8
#DATE        : 07-APR-2022
#TIME        : 17:06
#OWNER       :
#NPOINTS     : 1024.0
#NCOLUMNS    : 1.0
#XUNITS      : keV
#YUNITS      : counts
#DATATYPE    : XY
#XPERCHAN    : 0.01
#OFFSET      : -0.1
#SIGNALTYPE  : EDS
#CHOFFSET    : 10.0
#LIVETIME    : 98.2888
#REALTIME    : 106.294
#BEAMKV      : 10.0
#MAGCAM      : 1700.0
#XTILTSTGE   : 0.0
#AZIMANGLE   : 0.0
#ELEVANGLE   : 29.0
#XPOSITION mm: -5.2765
#YPOSITION mm: 4.4840
#ZPOSITION mm: 14.0000
##OXINSTPT   : 4
##OXINSTSTROB: 48.44
##OXINSTELEMS: 6,8,13,14,11,20,17,19,26
##OXINSTLABEL: 6, 0.277, C
##OXINSTLABEL: 8, 0.525, O
##OXINSTLABEL: 13, 1.487, Al
##OXINSTLABEL: 14, 1.740, Si
##OXINSTLABEL: 11, 1.041, Na
##OXINSTLABEL: 20, 3.692, Ca
##OXINSTLABEL: 20, 4.013, Ca
##OXINSTLABEL: 20, 0.341, Ca
##OXINSTLABEL: 20, 0.303, Ca
##OXINSTLABEL: 17, 2.622, Cl
##OXINSTLABEL: 17, 2.816, Cl
##OXINSTLABEL: 17, 0.181, Cl
##OXINSTLABEL: 19, 3.314, K
##OXINSTLABEL: 19, 3.590, K
##OXINSTLABEL: 19, 0.260, K
##OXINSTLABEL: 26, 6.404, Fe
##OXINSTLABEL: 26, 7.058, Fe
##OXINSTLABEL: 26, 0.703, Fe
##OXINSTLABEL: 26, 0.615, Fe
#SPECTRUM    : Spectral Data Starts Here
-0.10000, 0.0
-0.09000, 0.0
-0.08000, 0.0
-0.07000, 0.0
-0.06000, 0.0
-0.05000, 1.0
-0.04000, 4.0
-0.03000, 19.0
-0.02000, 54.0
-0.01000, 151.0
0.00000, 448.0
0.01000, 1076.0
0.02000, 2182.0
0.03000, 3673.0
0.04000, 4812.0
0.05000, 5030.0
0.06000, 4149.0
0.07000, 2756.0
0.08000, 1516.0
0.09000, 754.0
0.10000, 421.0
0.11000, 320.0
0.12000, 302.0
0.13000, 305.0
0.14000, 295.0
0.15000, 279.0
0.16000, 282.0
0.17000, 317.0
0.18000, 314.0
0.19000, 391.0
0.20000, 476.0
0.21000, 646.0
0.22000, 1046.0
0.23000, 1726.0
0.24000, 2673.0
0.25000, 3816.0
0.26000, 4838.0
0.27000, 5336.0
0.28000, 5095.0
0.29000, 4234.0
0.30000, 3107.0
0.31000, 2041.0
0.32000, 1195.0
0.33000, 741.0
0.34000, 534.0
0.35000, 458.0
0.36000, 511.0
0.37000, 583.0
0.38000, 654.0
0.39000, 754.0
0.40000, 804.0
0.41000, 846.0
0.42000, 937.0
0.43000, 1129.0
0.44000, 1561.0
0.45000, 2374.0
0.46000, 4211.0
0.47000, 7382.0
0.48000, 12805.0
0.49000, 20405.0
0.50000, 29152.0
0.51000, 36850.0
0.52000, 40651.0
0.53000, 39444.0
0.54000, 33281.0
0.55000, 24504.0
0.56000, 15573.0
0.57000, 8931.0
0.58000, 4594.0
0.59000, 2184.0
0.60000, 1072.0
0.61000, 631.0
0.62000, 528.0
0.63000, 491.0
0.64000, 488.0
0.65000, 536.0
0.66000, 565.0
0.67000, 621.0
0.68000, 681.0
0.69000, 733.0
0.70000, 743.0
0.71000, 718.0
0.72000, 707.0
0.73000, 649.0
0.74000, 649.0
0.75000, 632.0
0.76000, 610.0
0.77000, 615.0
0.78000, 621.0
0.79000, 616.0
0.80000, 649.0
0.81000, 648.0
0.82000, 635.0
0.83000, 635.0
0.84000, 639.0
0.85000, 630.0
0.86000, 662.0
0.87000, 667.0
0.88000, 665.0
0.89000, 700.0
0.90000, 686.0
0.91000, 704.0
0.92000, 753.0
0.93000, 775.0
0.94000, 746.0
0.95000, 765.0
0.96000, 784.0
0.97000, 822.0
0.98000, 990.0
0.99000, 1225.0
1.00000, 1519.0
1.01000, 1931.0
1.02000, 2452.0
1.03000, 2833.0
1.04000, 3028.0
1.05000, 2945.0
1.06000, 2727.0
1.07000, 2341.0
1.08000, 1907.0
1.09000, 1414.0
1.10000, 1049.0
1.11000, 892.0
1.12000, 778.0
1.13000, 710.0
1.14000, 688.0
1.15000, 686.0
1.16000, 667.0
1.17000, 667.0
1.18000, 663.0
1.19000, 658.0
1.20000, 645.0
1.21000, 650.0
1.22000, 657.0
1.23000, 675.0
1.24000, 699.0
1.25000, 719.0
1.26000, 703.0
1.27000, 706.0
1.28000, 714.0
1.29000, 678.0
1.30000, 668.0
1.31000, 708.0
1.32000, 695.0
1.33000, 689.0
1.34000, 681.0
1.35000, 652.0
1.36000, 633.0
1.37000, 633.0
1.38000, 647.0
1.39000, 663.0
1.40000, 727.0
1.41000, 828.0
1.42000, 1031.0
1.43000, 1382.0
1.44000, 1948.0
1.45000, 2567.0
1.46000, 3258.0
1.47000, 3953.0
1.48000, 4394.0
1.49000, 4602.0
1.50000, 4360.0
1.51000, 3973.0
1.52000, 3375.0
1.53000, 2669.0
1.54000, 2047.0
1.55000, 1537.0
1.56000, 1200.0
1.57000, 921.0
1.58000, 831.0
1.59000, 731.0
1.60000, 686.0
1.61000, 681.0
1.62000, 679.0
1.63000, 757.0
1.64000, 936.0
1.65000, 1336.0
1.66000, 2218.0
1.67000, 3592.0
1.68000, 5864.0
1.69000, 9178.0
1.70000, 13293.0
1.71000, 18249.0
1.72000, 23163.0
1.73000, 26816.0
1.74000, 28742.0
1.75000, 28690.0
1.76000, 26315.0
1.77000, 22262.0
1.78000, 17440.0
1.79000, 12765.0
1.80000, 8954.0
1.81000, 6057.0
1.82000, 4030.0
1.83000, 2778.0
1.84000, 2075.0
1.85000, 1609.0
1.86000, 1325.0
1.87000, 1102.0
1.88000, 912.0
1.89000, 728.0
1.90000, 581.0
1.91000, 501.0
1.92000, 443.0
1.93000, 392.0
1.94000, 352.0
1.95000, 351.0
1.96000, 362.0
1.97000, 374.0
1.98000, 383.0
1.99000, 381.0
2.00000, 412.0
2.01000, 415.0
2.02000, 424.0
2.03000, 414.0
2.04000, 382.0
2.05000, 375.0
2.06000, 358.0
2.07000, 355.0
2.08000, 331.0
2.09000, 312.0
2.10000, 332.0
2.11000, 322.0
2.12000, 306.0
2.13000, 332.0
2.14000, 333.0
2.15000, 325.0
2.16000, 327.0
2.17000, 319.0
2.18000, 308.0
2.19000, 318.0
2.20000, 322.0
2.21000, 311.0
2.22000, 317.0
2.23000, 343.0
2.24000, 353.0
2.25000, 358.0
2.26000, 382.0
2.27000, 394.0
2.28000, 385.0
2.29000, 389.0
2.30000, 396.0
2.31000, 409.0
2.32000, 402.0
2.33000, 371.0
2.34000, 344.0
2.35000, 338.0
2.36000, 326.0
2.37000, 306.0
2.38000, 265.0
2.39000, 278.0
2.40000, 269.0
2.41000, 288.0
2.42000, 280.0
2.43000, 280.0
2.44000, 294.0
2.45000, 284.0
2.46000, 255.0
2.47000, 256.0
2.48000, 262.0
2.49000, 258.0
2.50000, 266.0
2.51000, 268.0
2.52000, 258.0
2.53000, 248.0
2.54000, 257.0
2.55000, 287.0
2.56000, 296.0
2.57000, 312.0
2.58000, 346.0
2.59000, 342.0
2.60000, 371.0
2.61000, 418.0
2.62000, 420.0
2.63000, 406.0
2.64000, 402.0
2.65000, 374.0
2.66000, 352.0
2.67000, 330.0
2.68000, 314.0
2.69000, 298.0
2.70000, 285.0
2.71000, 270.0
2.72000, 255.0
2.73000, 238.0
2.74000, 236.0
2.75000, 241.0
2.76000, 238.0
2.77000, 251.0
2.78000, 255.0
2.79000, 264.0
2.80000, 258.0
2.81000, 243.0
2.82000, 228.0
2.83000, 228.0
2.84000, 230.0
2.85000, 240.0
2.86000, 229.0
2.87000, 205.0
2.88000, 225.0
2.89000, 243.0
2.90000, 222.0
2.91000, 208.0
2.92000, 223.0
2.93000, 220.0
2.94000, 206.0
2.95000, 213.0
2.96000, 220.0
2.97000, 226.0
2.98000, 229.0
2.99000, 230.0
3.00000, 230.0
3.01000, 209.0
3.02000, 197.0
3.03000, 198.0
3.04000, 198.0
3.05000, 189.0
3.06000, 211.0
3.07000, 213.0
3.08000, 219.0
3.09000, 201.0
3.10000, 194.0
3.11000, 194.0
3.12000, 197.0
3.13000, 204.0
3.14000, 185.0
3.15000, 185.0
3.16000, 181.0
3.17000, 174.0
3.18000, 180.0
3.19000, 197.0
3.20000, 186.0
3.21000, 201.0
3.22000, 191.0
3.23000, 207.0
3.24000, 200.0
3.25000, 226.0
3.26000, 254.0
3.27000, 261.0
3.28000, 290.0
3.29000, 308.0
3.30000, 304.0
3.31000, 318.0
3.32000, 343.0
3.33000, 330.0
3.34000, 284.0
3.35000, 276.0
3.36000, 252.0
3.37000, 242.0
3.38000, 224.0
3.39000, 210.0
3.40000, 210.0
3.41000, 194.0
3.42000, 187.0
3.43000, 182.0
3.44000, 189.0
3.45000, 186.0
3.46000, 171.0
3.47000, 178.0
3.48000, 193.0
3.49000, 199.0
3.50000, 160.0
3.51000, 169.0
3.52000, 173.0
3.53000, 173.0
3.54000, 178.0
3.55000, 194.0
3.56000, 184.0
3.57000, 179.0
3.58000, 188.0
3.59000, 201.0
3.60000, 206.0
3.61000, 238.0
3.62000, 249.0
3.63000, 267.0
3.64000, 291.0
3.65000, 322.0
3.66000, 335.0
3.67000, 363.0
3.68000, 386.0
3.69000, 398.0
3.70000, 404.0
3.71000, 403.0
3.72000, 366.0
3.73000, 331.0
3.74000, 305.0
3.75000, 268.0
3.76000, 247.0
3.77000, 222.0
3.78000, 205.0
3.79000, 199.0
3.80000, 176.0
3.81000, 156.0
3.82000, 150.0
3.83000, 144.0
3.84000, 138.0
3.85000, 132.0
3.86000, 137.0
3.87000, 136.0
3.88000, 141.0
3.89000, 143.0
3.90000, 139.0
3.91000, 133.0
3.92000, 137.0
3.93000, 135.0
3.94000, 135.0
3.95000, 135.0
3.96000, 138.0
3.97000, 130.0
3.98000, 143.0
3.99000, 162.0
4.00000, 161.0
4.01000, 167.0
4.02000, 166.0
4.03000, 142.0
4.04000, 150.0
4.05000, 155.0
4.06000, 164.0
4.07000, 148.0
4.08000, 142.0
4.09000, 144.0
4.10000, 125.0
4.11000, 122.0
4.12000, 125.0
4.13000, 130.0
4.14000, 116.0
4.15000, 107.0
4.16000, 114.0
4.17000, 112.0
4.18000, 118.0
4.19000, 129.0
4.20000, 133.0
4.21000, 127.0
4.22000, 97.0
4.23000, 103.0
4.24000, 124.0
4.25000, 108.0
4.26000, 110.0
4.27000, 121.0
4.28000, 120.0
4.29000, 117.0
4.30000, 113.0
4.31000, 99.0
4.32000, 99.0
4.33000, 111.0
4.34000, 111.0
4.35000, 116.0
4.36000, 120.0
4.37000, 117.0
4.38000, 120.0
4.39000, 107.0
4.40000, 100.0
4.41000, 107.0
4.42000, 103.0
4.43000, 90.0
4.44000, 92.0
4.45000, 102.0
4.46000, 111.0
4.47000, 100.0
4.48000, 98.0
4.49000, 103.0
4.50000, 108.0
4.51000, 101.0
4.52000, 107.0
4.53000, 97.0
4.54000, 96.0
4.55000, 101.0
4.56000, 98.0
4.57000, 99.0
4.58000, 94.0
4.59000, 87.0
4.60000, 101.0
4.61000, 95.0
4.62000, 81.0
4.63000, 86.0
4.64000, 91.0
4.65000, 97.0
4.66000, 93.0
4.67000, 83.0
4.68000, 104.0
4.69000, 103.0
4.70000, 95.0
4.71000, 94.0
4.72000, 106.0
4.73000, 115.0
4.74000, 92.0
4.75000, 83.0
4.76000, 87.0
4.77000, 88.0
4.78000, 84.0
4.79000, 82.0
4.80000, 82.0
4.81000, 91.0
4.82000, 98.0
4.83000, 100.0
4.84000, 74.0
4.85000, 76.0
4.86000, 81.0
4.87000, 81.0
4.88000, 90.0
4.89000, 90.0
4.90000, 95.0
4.91000, 93.0
4.92000, 93.0
4.93000, 89.0
4.94000, 80.0
4.95000, 85.0
4.96000, 73.0
4.97000, 85.0
4.98000, 80.0
4.99000, 63.0
5.00000, 70.0
5.01000, 94.0
5.02000, 84.0
5.03000, 72.0
5.04000, 68.0
5.05000, 82.0
5.06000, 84.0
5.07000, 86.0
5.08000, 95.0
5.09000, 82.0
5.10000, 82.0
5.11000, 76.0
5.12000, 80.0
5.13000, 70.0
5.14000, 82.0
5.15000, 77.0
5.16000, 67.0
5.17000, 80.0
5.18000, 74.0
5.19000, 68.0
5.20000, 72.0
5.21000, 80.0
5.22000, 70.0
5.23000, 84.0
5.24000, 67.0
5.25000, 74.0
5.26000, 68.0
5.27000, 68.0
5.28000, 78.0
5.29000, 68.0
5.30000, 60.0
5.31000, 60.0
5.32000, 73.0
5.33000, 61.0
5.34000, 65.0
5.35000, 69.0
5.36000, 63.0
5.37000, 65.0
5.38000, 59.0
5.39000, 63.0
5.40000, 67.0
5.41000, 71.0
5.42000, 77.0
5.43000, 65.0
5.44000, 46.0
5.45000, 67.0
5.46000, 76.0
5.47000, 67.0
5.48000, 65.0
5.49000, 70.0
5.50000, 63.0
5.51000, 56.0
5.52000, 61.0
5.53000, 56.0
5.54000, 70.0
5.55000, 67.0
5.56000, 67.0
5.57000, 72.0
5.58000, 64.0
5.59000, 70.0
5.60000, 71.0
5.61000, 66.0
5.62000, 72.0
5.63000, 62.0
5.64000, 61.0
5.65000, 63.0
5.66000, 60.0
5.67000, 60.0
5.68000, 54.0
5.69000, 48.0
5.70000, 49.0
5.71000, 57.0
5.72000, 58.0
5.73000, 58.0
5.74000, 60.0
5.75000, 57.0
5.76000, 59.0
5.77000, 62.0
5.78000, 67.0
5.79000, 62.0
5.80000, 51.0
5.81000, 58.0
5.82000, 54.0
5.83000, 55.0
5.84000, 59.0
5.85000, 54.0
5.86000, 59.0
5.87000, 62.0
5.88000, 60.0
5.89000, 52.0
5.90000, 63.0
5.91000, 58.0
5.92000, 56.0
5.93000, 63.0
5.94000, 55.0
5.95000, 46.0
5.96000, 53.0
5.97000, 55.0
5.98000, 57.0
5.99000, 48.0
6.00000, 52.0
6.01000, 41.0
6.02000, 43.0
6.03000, 51.0
6.04000, 48.0
6.05000, 45.0
6.06000, 49.0
6.07000, 57.0
6.08000, 57.0
6.09000, 54.0
6.10000, 59.0
6.11000, 50.0
6.12000, 42.0
6.13000, 45.0
6.14000, 45.0
6.15000, 39.0
6.16000, 38.0
6.17000, 43.0
6.18000, 38.0
6.19000, 44.0
6.20000, 38.0
6.21000, 40.0
6.22000, 39.0
6.23000, 42.0
6.24000, 39.0
6.25000, 52.0
6.26000, 50.0
6.27000, 49.0
6.28000, 49.0
6.29000, 39.0
6.30000, 37.0
6.31000, 54.0
6.32000, 50.0
6.33000, 46.0
6.34000, 57.0
6.35000, 67.0
6.36000, 60.0
6.37000, 56.0
6.38000, 70.0
6.39000, 59.0
6.40000, 64.0
6.41000, 59.0
6.42000, 66.0
6.43000, 59.0
6.44000, 45.0
6.45000, 50.0
6.46000, 48.0
6.47000, 49.0
6.48000, 39.0
6.49000, 36.0
6.50000, 38.0
6.51000, 36.0
6.52000, 42.0
6.53000, 34.0
6.54000, 41.0
6.55000, 33.0
6.56000, 43.0
6.57000, 34.0
6.58000, 40.0
6.59000, 48.0
6.60000, 41.0
6.61000, 40.0
6.62000, 37.0
6.63000, 34.0
6.64000, 32.0
6.65000, 37.0
6.66000, 33.0
6.67000, 37.0
6.68000, 33.0
6.69000, 32.0
6.70000, 30.0
6.71000, 35.0
6.72000, 36.0
6.73000, 41.0
6.74000, 43.0
6.75000, 33.0
6.76000, 30.0
6.77000, 32.0
6.78000, 38.0
6.79000, 35.0
6.80000, 27.0
6.81000, 41.0
6.82000, 43.0
6.83000, 36.0
6.84000, 37.0
6.85000, 32.0
6.86000, 32.0
6.87000, 36.0
6.88000, 41.0
6.89000, 35.0
6.90000, 31.0
6.91000, 39.0
6.92000, 32.0
6.93000, 32.0
6.94000, 33.0
6.95000, 30.0
6.96000, 35.0
6.97000, 35.0
6.98000, 37.0
6.99000, 46.0
7.00000, 34.0
7.01000, 28.0
7.02000, 33.0
7.03000, 32.0
7.04000, 30.0
7.05000, 35.0
7.06000, 35.0
7.07000, 39.0
7.08000, 42.0
7.09000, 35.0
7.10000, 29.0
7.11000, 38.0
7.12000, 25.0
7.13000, 21.0
7.14000, 26.0
7.15000, 27.0
7.16000, 25.0
7.17000, 27.0
7.18000, 26.0
7.19000, 24.0
7.20000, 26.0
7.21000, 28.0
7.22000, 23.0
7.23000, 28.0
7.24000, 32.0
7.25000, 22.0
7.26000, 27.0
7.27000, 22.0
7.28000, 22.0
7.29000, 27.0
7.30000, 24.0
7.31000, 31.0
7.32000, 27.0
7.33000, 24.0
7.34000, 22.0
7.35000, 30.0
7.36000, 23.0
7.37000, 31.0
7.38000, 28.0
7.39000, 20.0
7.40000, 23.0
7.41000, 20.0
7.42000, 18.0
7.43000, 19.0
7.44000, 31.0
7.45000, 20.0
7.46000, 20.0
7.47000, 22.0
7.48000, 21.0
7.49000, 24.0
7.50000, 22.0
7.51000, 30.0
7.52000, 26.0
7.53000, 27.0
7.54000, 23.0
7.55000, 21.0
7.56000, 21.0
7.57000, 26.0
7.58000, 25.0
7.59000, 19.0
7.60000, 16.0
7.61000, 27.0
7.62000, 26.0
7.63000, 16.0
7.64000, 16.0
7.65000, 19.0
7.66000, 18.0
7.67000, 22.0
7.68000, 26.0
7.69000, 23.0
7.70000, 25.0
7.71000, 22.0
7.72000, 20.0
7.73000, 18.0
7.74000, 12.0
7.75000, 21.0
7.76000, 20.0
7.77000, 16.0
7.78000, 15.0
7.79000, 13.0
7.80000, 11.0
7.81000, 19.0
7.82000, 24.0
7.83000, 16.0
7.84000, 15.0
7.85000, 19.0
7.86000, 20.0
7.87000, 15.0
7.88000, 14.0
7.89000, 12.0
7.90000, 21.0
7.91000, 16.0
7.92000, 19.0
7.93000, 17.0
7.94000, 14.0
7.95000, 10.0
7.96000, 18.0
7.97000, 20.0
7.98000, 15.0
7.99000, 16.0
8.00000, 16.0
8.01000, 16.0
8.02000, 13.0
8.03000, 11.0
8.04000, 17.0
8.05000, 9.0
8.06000, 16.0
8.07000, 17.0
8.08000, 18.0
8.09000, 18.0
8.10000, 19.0
8.11000, 12.0
8.12000, 15.0
8.13000, 16.0
8.14000, 15.0
8.15000, 13.0
8.16000, 7.0
8.17000, 11.0
8.18000, 17.0
8.19000, 18.0
8.20000, 12.0
8.21000, 17.0
8.22000, 15.0
8.23000, 17.0
8.24000, 15.0
8.25000, 11.0
8.26000, 10.0
8.27000, 12.0
8.28000, 8.0
8.29000, 12.0
8.30000, 13.0
8.31000, 14.0
8.32000, 12.0
8.33000, 14.0
8.34000, 11.0
8.35000, 10.0
8.36000, 8.0
8.37000, 8.0
8.38000, 13.0
8.39000, 13.0
8.40000, 11.0
8.41000, 12.0
8.42000, 11.0
8.43000, 12.0
8.44000, 14.0
8.45000, 8.0
8.46000, 5.0
8.47000, 4.0
8.48000, 6.0
8.49000, 9.0
8.50000, 12.0
8.51000, 11.0
8.52000, 9.0
8.53000, 12.0
8.54000, 12.0
8.55000, 7.0
8.56000, 11.0
8.57000, 10.0
8.58000, 10.0
8.59000, 8.0
8.60000, 8.0
8.61000, 10.0
8.62000, 12.0
8.63000, 7.0
8.64000, 7.0
8.65000, 8.0
8.66000, 7.0
8.67000, 5.0
8.68000, 6.0
8.69000, 8.0
8.70000, 3.0
8.71000, 7.0
8.72000, 13.0
8.73000, 6.0
8.74000, 5.0
8.75000, 7.0
8.76000, 4.0
8.77000, 7.0
8.78000, 6.0
8.79000, 6.0
8.80000, 10.0
8.81000, 6.0
8.82000, 10.0
8.83000, 4.0
8.84000, 3.0
8.85000, 12.0
8.86000, 6.0
8.87000, 6.0
8.88000, 1.0
8.89000, 3.0
8.90000, 4.0
8.91000, 8.0
8.92000, 7.0
8.93000, 5.0
8.94000, 6.0
8.95000, 8.0
8.96000, 6.0
8.97000, 5.0
8.98000, 3.0
8.99000, 3.0
9.00000, 5.0
9.01000, 3.0
9.02000, 5.0
9.03000, 3.0
9.04000, 4.0
9.05000, 4.0
9.06000, 4.0
9.07000, 5.0
9.08000, 7.0
9.09000, 4.0
9.10000, 6.0
9.11000, 4.0
9.12000, 3.0
9.13000, 5.0
9.14000, 5.0
9.15000, 4.0
9.16000, 2.0
9.17000, 1.0
9.18000, 2.0
9.19000, 1.0
9.20000, 3.0
9.21000, 2.0
9.22000, 3.0
9.23000, 5.0
9.24000, 3.0
9.25000, 3.0
9.26000, 3.0
9.27000, 1.0
9.28000, 2.0
9.29000, 4.0
9.30000, 3.0
9.31000, 3.0
9.32000, 2.0
9.33000, 2.0
9.34000, 0.0
9.35000, 1.0
9.36000, 0.0
9.37000, 2.0
9.38000, 0.0
9.39000, 1.0
9.40000, 2.0
9.41000, 1.0
9.42000, 0.0
9.43000, 1.0
9.44000, 0.0
9.45000, 2.0
9.46000, 2.0
9.47000, 2.0
9.48000, 2.0
9.49000, 1.0
9.50000, 0.0
9.51000, 0.0
9.52000, 0.0
9.53000, 1.0
9.54000, 0.0
9.55000, 0.0
9.56000, 0.0
9.57000, 0.0
9.58000, 0.0
9.59000, 0.0
9.60000, 0.0
9.61000, 0.0
9.62000, 0.0
9.63000, 0.0
9.64000, 0.0
9.65000, 0.0
9.66000, 0.0
9.67000, 0.0
9.68000, 0.0
9.69000, 0.0
9.70000, 0.0
9.71000, 0.0
9.72000, 0.0
9.73000, 0.0
9.74000, 0.0
9.75000, 0.0
9.76000, 0.0
9.77000, 0.0
9.78000, 0.0
9.79000, 0.0
9.80000, 0.0
9.81000, 0.0
9.82000, 0.0
9.83000, 1.0
9.84000, 0.0
9.85000, 0.0
9.86000, 0.0
9.87000, 0.0
9.88000, 0.0
9.89000, 0.0
9.90000, 0.0
9.91000, 0.0
9.92000, 0.0
9.93000, 0.0
9.94000, 0.0
9.95000, 0.0
9.96000, 0.0
9.97000, 0.0
9.98000, 0.0
9.99000, 0.0
10.00000, 0.0
10.01000, 0.0
10.02000, 0.0
10.03000, 1.0
10.04000, 0.0
10.05000, 0.0
10.06000, 0.0
10.07000, 0.0
10.08000, 0.0
10.09000, 0.0
10.10000, 0.0
10.11000, 0.0
10.12000, 0.0
10.13000, 0.0
#ENDOFDATA   :