File: data/EDX_reports/site 5_Spectrum 11.txt
#FORMAT      : EMSA/MAS Spectral Data File
#VERSION     : 1.0
#TITLE       : Spectrum 11
#DATE        : 07-APR-2022
#TIME        : 17:16
#OWNER       :
#NPOINTS     : 1024.0
#NCOLUMNS    : 1.0
#XUNITS      : keV
#YUNITS      : counts
#DATATYPE    : XY
#XPERCHAN    : 0.01
#OFFSET      : -0.1
#SIGNALTYPE  : EDS
#CHOFFSET    : 10.0
#LIVETIME    : 107.407
#REALTIME    : 115.754
#BEAMKV      : 10.0
#MAGCAM      : 1100.0
#XTILTSTGE   : 0.0
#AZIMANGLE   : 0.0
#ELEVANGLE   : 29.0
#XPOSITION mm: -3.9715
#YPOSITION mm: -9.8078
#ZPOSITION mm: 14.0000
##OXINSTPT   : 4
##OXINSTSTROB: 48.44
##OXINSTELEMS: 6,8,11,13,14,19,20,26,12
##OXINSTLABEL: 6, 0.277, C
##OXINSTLABEL: 8, 0.525, O
##OXINSTLABEL: 11, 1.041, Na
##OXINSTLABEL: 13, 1.487, Al
##OXINSTLABEL: 14, 1.740, Si
##OXINSTLABEL: 19, 3.314, K
##OXINSTLABEL: 19, 3.590, K
##OXINSTLABEL: 19, 0.260, K
##OXINSTLABEL: 20, 3.692, Ca
##OXINSTLABEL: 20, 4.013, Ca
##OXINSTLABEL: 20, 0.341, Ca
##OXINSTLABEL: 20, 0.303, Ca
##OXINSTLABEL: 26, 6.404, Fe
##OXINSTLABEL: 26, 7.058, Fe
##OXINSTLABEL: 26, 0.703, Fe
##OXINSTLABEL: 26, 0.615, Fe
##OXINSTLABEL: 12, 1.254, Mg
#SPECTRUM    : Spectral Data Starts Here
-0.10000, 0.0
-0.09000, 0.0
-0.08000, 0.0
-0.07000, 0.0
-0.06000, 0.0
-0.05000, 2.0
-0.04000, 4.0
-0.03000, 11.0
-0.02000, 50.0
-0.01000, 185.0
0.00000, 480.0
0.01000, 1153.0
0.02000, 2327.0
0.03000, 3938.0
0.04000, 5252.0
0.05000, 5478.0
0.06000, 4616.0
0.07000, 3139.0
0.08000, 1747.0
0.09000, 958.0
0.10000, 672.0
0.11000, 583.0
0.12000, 508.0
0.13000, 474.0
0.14000, 459.0
0.15000, 466.0
0.16000, 470.0
0.17000, 502.0
0.18000, 548.0
0.19000, 640.0
0.20000, 774.0
0.21000, 1026.0
0.22000, 1559.0
0.23000, 2430.0
0.24000, 3667.0
0.25000, 5021.0
0.26000, 6259.0
0.27000, 6991.0
0.28000, 6758.0
0.29000, 5584.0
0.30000, 4069.0
0.31000, 2657.0
0.32000, 1596.0
0.33000, 984.0
0.34000, 708.0
0.35000, 677.0
0.36000, 662.0
0.37000, 685.0
0.38000, 756.0
0.39000, 813.0
0.40000, 922.0
0.41000, 1024.0
0.42000, 1178.0
0.43000, 1432.0
0.44000, 1973.0
0.45000, 2968.0
0.46000, 4999.0
0.47000, 8776.0
0.48000, 15165.0
0.49000, 24053.0
0.50000, 34057.0
0.51000, 42988.0
0.52000, 47882.0
0.53000, 46408.0
0.54000, 39325.0
0.55000, 28984.0
0.56000, 18807.0
0.57000, 10775.0
0.58000, 5577.0
0.59000, 2752.0
0.60000, 1447.0
0.61000, 959.0
0.62000, 808.0
0.63000, 793.0
0.64000, 847.0
0.65000, 848.0
0.66000, 923.0
0.67000, 1016.0
0.68000, 1106.0
0.69000, 1252.0
0.70000, 1312.0
0.71000, 1323.0
0.72000, 1308.0
0.73000, 1192.0
0.74000, 1037.0
0.75000, 943.0
0.76000, 874.0
0.77000, 829.0
0.78000, 806.0
0.79000, 811.0
0.80000, 810.0
0.81000, 796.0
0.82000, 745.0
0.83000, 759.0
0.84000, 758.0
0.85000, 714.0
0.86000, 730.0
0.87000, 776.0
0.88000, 756.0
0.89000, 737.0
0.90000, 734.0
0.91000, 748.0
0.92000, 743.0
0.93000, 731.0
0.94000, 715.0
0.95000, 773.0
0.96000, 790.0
0.97000, 776.0
0.98000, 820.0
0.99000, 967.0
1.00000, 1079.0
1.01000, 1271.0
1.02000, 1445.0
1.03000, 1619.0
1.04000, 1749.0
1.05000, 1744.0
1.06000, 1613.0
1.07000, 1439.0
1.08000, 1218.0
1.09000, 1040.0
1.10000, 875.0
1.11000, 806.0
1.12000, 776.0
1.13000, 730.0
1.14000, 703.0
1.15000, 688.0
1.16000, 664.0
1.17000, 653.0
1.18000, 660.0
1.19000, 680.0
1.20000, 724.0
1.21000, 759.0
1.22000, 776.0
1.23000, 731.0
1.24000, 754.0
1.25000, 825.0
1.26000, 829.0
1.27000, 788.0
1.28000, 769.0
1.29000, 737.0
1.30000, 740.0
1.31000, 695.0
1.32000, 632.0
1.33000, 613.0
1.34000, 636.0
1.35000, 633.0
1.36000, 622.0
1.37000, 637.0
1.38000, 628.0
1.39000, 639.0
1.40000, 726.0
1.41000, 877.0
1.42000, 1143.0
1.43000, 1627.0
1.44000, 2291.0
1.45000, 3143.0
1.46000, 4078.0
1.47000, 5003.0
1.48000, 5656.0
1.49000, 5852.0
1.50000, 5719.0
1.51000, 5072.0
1.52000, 4199.0
1.53000, 3304.0
1.54000, 2458.0
1.55000, 1783.0
1.56000, 1325.0
1.57000, 1042.0
1.58000, 840.0
1.59000, 701.0
1.60000, 634.0
1.61000, 627.0
1.62000, 634.0
1.63000, 632.0
1.64000, 762.0
1.65000, 1134.0
1.66000, 1784.0
1.67000, 2850.0
1.68000, 4668.0
1.69000, 7175.0
1.70000, 10375.0
1.71000, 14150.0
1.72000, 17857.0
1.73000, 20750.0
1.74000, 22300.0
1.75000, 22142.0
1.76000, 20349.0
1.77000, 17128.0
1.78000, 13578.0
1.79000, 10119.0
1.80000, 7055.0
1.81000, 4780.0
1.82000, 3280.0
1.83000, 2256.0
1.84000, 1653.0
1.85000, 1339.0
1.86000, 1076.0
1.87000, 895.0
1.88000, 743.0
1.89000, 629.0
1.90000, 554.0
1.91000, 470.0
1.92000, 413.0
1.93000, 376.0
1.94000, 368.0
1.95000, 371.0
1.96000, 370.0
1.97000, 346.0
1.98000, 344.0
1.99000, 360.0
2.00000, 354.0
2.01000, 343.0
2.02000, 355.0
2.03000, 356.0
2.04000, 355.0
2.05000, 339.0
2.06000, 334.0
2.07000, 313.0
2.08000, 299.0
2.09000, 299.0
2.10000, 309.0
2.11000, 303.0
2.12000, 307.0
2.13000, 286.0
2.14000, 288.0
2.15000, 301.0
2.16000, 301.0
2.17000, 305.0
2.18000, 313.0
2.19000, 300.0
2.20000, 282.0
2.21000, 308.0
2.22000, 308.0
2.23000, 312.0
2.24000, 316.0
2.25000, 324.0
2.26000, 313.0
2.27000, 311.0
2.28000, 322.0
2.29000, 309.0
2.30000, 306.0
2.31000, 292.0
2.32000, 292.0
2.33000, 285.0
2.34000, 301.0
2.35000, 278.0
2.36000, 263.0
2.37000, 259.0
2.38000, 265.0
2.39000, 247.0
2.40000, 244.0
2.41000, 259.0
2.42000, 273.0
2.43000, 268.0
2.44000, 255.0
2.45000, 258.0
2.46000, 259.0
2.47000, 239.0
2.48000, 237.0
2.49000, 246.0
2.50000, 248.0
2.51000, 242.0
2.52000, 230.0
2.53000, 232.0
2.54000, 247.0
2.55000, 219.0
2.56000, 215.0
2.57000, 220.0
2.58000, 217.0
2.59000, 228.0
2.60000, 235.0
2.61000, 246.0
2.62000, 226.0
2.63000, 235.0
2.64000, 236.0
2.65000, 247.0
2.66000, 234.0
2.67000, 224.0
2.68000, 228.0
2.69000, 221.0
2.70000, 210.0
2.71000, 238.0
2.72000, 225.0
2.73000, 215.0
2.74000, 219.0
2.75000, 204.0
2.76000, 196.0
2.77000, 209.0
2.78000, 199.0
2.79000, 218.0
2.80000, 216.0
2.81000, 206.0
2.82000, 208.0
2.83000, 204.0
2.84000, 209.0
2.85000, 200.0
2.86000, 186.0
2.87000, 169.0
2.88000, 186.0
2.89000, 185.0
2.90000, 210.0
2.91000, 206.0
2.92000, 194.0
2.93000, 187.0
2.94000, 195.0
2.95000, 183.0
2.96000, 193.0
2.97000, 209.0
2.98000, 196.0
2.99000, 179.0
3.00000, 172.0
3.01000, 171.0
3.02000, 181.0
3.03000, 182.0
3.04000, 190.0
3.05000, 195.0
3.06000, 176.0
3.07000, 174.0
3.08000, 172.0
3.09000, 169.0
3.10000, 176.0
3.11000, 175.0
3.12000, 172.0
3.13000, 187.0
3.14000, 192.0
3.15000, 166.0
3.16000, 178.0
3.17000, 182.0
3.18000, 170.0
3.19000, 180.0
3.20000, 189.0
3.21000, 171.0
3.22000, 182.0
3.23000, 199.0
3.24000, 223.0
3.25000, 220.0
3.26000, 229.0
3.27000, 284.0
3.28000, 309.0
3.29000, 319.0
3.30000, 375.0
3.31000, 380.0
3.32000, 368.0
3.33000, 392.0
3.34000, 354.0
3.35000, 320.0
3.36000, 315.0
3.37000, 286.0
3.38000, 221.0
3.39000, 197.0
3.40000, 182.0
3.41000, 192.0
3.42000, 196.0
3.43000, 192.0
3.44000, 179.0
3.45000, 170.0
3.46000, 159.0
3.47000, 149.0
3.48000, 155.0
3.49000, 164.0
3.50000, 169.0
3.51000, 169.0
3.52000, 157.0
3.53000, 161.0
3.54000, 169.0
3.55000, 154.0
3.56000, 169.0
3.57000, 177.0
3.58000, 163.0
3.59000, 158.0
3.60000, 178.0
3.61000, 159.0
3.62000, 171.0
3.63000, 192.0
3.64000, 187.0
3.65000, 194.0
3.66000, 216.0
3.67000, 250.0
3.68000, 237.0
3.69000, 231.0
3.70000, 236.0
3.71000, 229.0
3.72000, 227.0
3.73000, 207.0
3.74000, 195.0
3.75000, 178.0
3.76000, 157.0
3.77000, 154.0
3.78000, 134.0
3.79000, 134.0
3.80000, 143.0
3.81000, 128.0
3.82000, 126.0
3.83000, 130.0
3.84000, 122.0
3.85000, 124.0
3.86000, 129.0
3.87000, 124.0
3.88000, 114.0
3.89000, 110.0
3.90000, 113.0
3.91000, 115.0
3.92000, 117.0
3.93000, 121.0
3.94000, 109.0
3.95000, 112.0
3.96000, 122.0
3.97000, 131.0
3.98000, 111.0
3.99000, 100.0
4.00000, 124.0
4.01000, 128.0
4.02000, 124.0
4.03000, 125.0
4.04000, 114.0
4.05000, 117.0
4.06000, 113.0
4.07000, 103.0
4.08000, 105.0
4.09000, 102.0
4.10000, 109.0
4.11000, 119.0
4.12000, 120.0
4.13000, 106.0
4.14000, 112.0
4.15000, 101.0
4.16000, 88.0
4.17000, 101.0
4.18000, 103.0
4.19000, 94.0
4.20000, 95.0
4.21000, 96.0
4.22000, 92.0
4.23000, 92.0
4.24000, 81.0
4.25000, 90.0
4.26000, 92.0
4.27000, 100.0
4.28000, 93.0
4.29000, 88.0
4.30000, 95.0
4.31000, 93.0
4.32000, 93.0
4.33000, 91.0
4.34000, 91.0
4.35000, 89.0
4.36000, 102.0
4.37000, 97.0
4.38000, 88.0
4.39000, 92.0
4.40000, 86.0
4.41000, 87.0
4.42000, 97.0
4.43000, 94.0
4.44000, 87.0
4.45000, 101.0
4.46000, 112.0
4.47000, 107.0
4.48000, 96.0
4.49000, 97.0
4.50000, 86.0
4.51000, 88.0
4.52000, 90.0
4.53000, 92.0
4.54000, 87.0
4.55000, 75.0
4.56000, 86.0
4.57000, 92.0
4.58000, 84.0
4.59000, 83.0
4.60000, 77.0
4.61000, 75.0
4.62000, 81.0
4.63000, 79.0
4.64000, 77.0
4.65000, 79.0
4.66000, 79.0
4.67000, 77.0
4.68000, 91.0
4.69000, 77.0
4.70000, 65.0
4.71000, 60.0
4.72000, 66.0
4.73000, 77.0
4.74000, 90.0
4.75000, 82.0
4.76000, 73.0
4.77000, 62.0
4.78000, 64.0
4.79000, 67.0
4.80000, 72.0
4.81000, 75.0
4.82000, 79.0
4.83000, 74.0
4.84000, 68.0
4.85000, 70.0
4.86000, 75.0
4.87000, 67.0
4.88000, 72.0
4.89000, 67.0
4.90000, 53.0
4.91000, 59.0
4.92000, 69.0
4.93000, 77.0
4.94000, 65.0
4.95000, 68.0
4.96000, 66.0
4.97000, 72.0
4.98000, 77.0
4.99000, 52.0
5.00000, 49.0
5.01000, 70.0
5.02000, 71.0
5.03000, 68.0
5.04000, 61.0
5.05000, 65.0
5.06000, 53.0
5.07000, 65.0
5.08000, 58.0
5.09000, 58.0
5.10000, 63.0
5.11000, 65.0
5.12000, 56.0
5.13000, 67.0
5.14000, 60.0
5.15000, 50.0
5.16000, 56.0
5.17000, 53.0
5.18000, 57.0
5.19000, 58.0
5.20000, 57.0
5.21000, 49.0
5.22000, 43.0
5.23000, 58.0
5.24000, 56.0
5.25000, 52.0
5.26000, 48.0
5.27000, 49.0
5.28000, 53.0
5.29000, 44.0
5.30000, 51.0
5.31000, 53.0
5.32000, 50.0
5.33000, 51.0
5.34000, 56.0
5.35000, 53.0
5.36000, 49.0
5.37000, 45.0
5.38000, 45.0
5.39000, 44.0
5.40000, 40.0
5.41000, 47.0
5.42000, 47.0
5.43000, 49.0
5.44000, 43.0
5.45000, 44.0
5.46000, 52.0
5.47000, 48.0
5.48000, 46.0
5.49000, 40.0
5.50000, 38.0
5.51000, 47.0
5.52000, 37.0
5.53000, 41.0
5.54000, 48.0
5.55000, 50.0
5.56000, 44.0
5.57000, 42.0
5.58000, 47.0
5.59000, 46.0
5.60000, 46.0
5.61000, 39.0
5.62000, 42.0
5.63000, 43.0
5.64000, 43.0
5.65000, 39.0
5.66000, 50.0
5.67000, 48.0
5.68000, 39.0
5.69000, 39.0
5.70000, 42.0
5.71000, 42.0
5.72000, 43.0
5.73000, 46.0
5.74000, 43.0
5.75000, 32.0
5.76000, 39.0
5.77000, 41.0
5.78000, 40.0
5.79000, 41.0
5.80000, 40.0
5.81000, 41.0
5.82000, 46.0
5.83000, 46.0
5.84000, 40.0
5.85000, 39.0
5.86000, 40.0
5.87000, 39.0
5.88000, 39.0
5.89000, 41.0
5.90000, 40.0
5.91000, 38.0
5.92000, 34.0
5.93000, 38.0
5.94000, 40.0
5.95000, 43.0
5.96000, 39.0
5.97000, 30.0
5.98000, 36.0
5.99000, 29.0
6.00000, 32.0
6.01000, 42.0
6.02000, 34.0
6.03000, 36.0
6.04000, 47.0
6.05000, 40.0
6.06000, 36.0
6.07000, 34.0
6.08000, 34.0
6.09000, 25.0
6.10000, 31.0
6.11000, 28.0
6.12000, 33.0
6.13000, 37.0
6.14000, 33.0
6.15000, 37.0
6.16000, 32.0
6.17000, 28.0
6.18000, 29.0
6.19000, 28.0
6.20000, 29.0
6.21000, 26.0
6.22000, 27.0
6.23000, 35.0
6.24000, 38.0
6.25000, 45.0
6.26000, 32.0
6.27000, 29.0
6.28000, 22.0
6.29000, 26.0
6.30000, 26.0
6.31000, 40.0
6.32000, 29.0
6.33000, 26.0
6.34000, 26.0
6.35000, 25.0
6.36000, 30.0
6.37000, 31.0
6.38000, 26.0
6.39000, 34.0
6.40000, 32.0
6.41000, 28.0
6.42000, 32.0
6.43000, 27.0
6.44000, 32.0
6.45000, 29.0
6.46000, 34.0
6.47000, 32.0
6.48000, 25.0
6.49000, 26.0
6.50000, 25.0
6.51000, 27.0
6.52000, 32.0
6.53000, 27.0
6.54000, 22.0
6.55000, 17.0
6.56000, 13.0
6.57000, 24.0
6.58000, 28.0
6.59000, 28.0
6.60000, 25.0
6.61000, 17.0
6.62000, 20.0
6.63000, 17.0
6.64000, 22.0
6.65000, 24.0
6.66000, 28.0
6.67000, 20.0
6.68000, 19.0
6.69000, 22.0
6.70000, 17.0
6.71000, 18.0
6.72000, 23.0
6.73000, 16.0
6.74000, 19.0
6.75000, 20.0
6.76000, 15.0
6.77000, 21.0
6.78000, 19.0
6.79000, 15.0
6.80000, 18.0
6.81000, 19.0
6.82000, 21.0
6.83000, 17.0
6.84000, 13.0
6.85000, 12.0
6.86000, 20.0
6.87000, 19.0
6.88000, 18.0
6.89000, 20.0
6.90000, 15.0
6.91000, 16.0
6.92000, 18.0
6.93000, 19.0
6.94000, 13.0
6.95000, 16.0
6.96000, 12.0
6.97000, 9.0
6.98000, 15.0
6.99000, 19.0
7.00000, 16.0
7.01000, 13.0
7.02000, 11.0
7.03000, 15.0
7.04000, 14.0
7.05000, 14.0
7.06000, 11.0
7.07000, 12.0
7.08000, 18.0
7.09000, 12.0
7.10000, 13.0
7.11000, 12.0
7.12000, 14.0
7.13000, 13.0
7.14000, 14.0
7.15000, 12.0
7.16000, 10.0
7.17000, 14.0
7.18000, 10.0
7.19000, 8.0
7.20000, 12.0
7.21000, 13.0
7.22000, 9.0
7.23000, 10.0
7.24000, 11.0
7.25000, 7.0
7.26000, 9.0
7.27000, 8.0
7.28000, 14.0
7.29000, 9.0
7.30000, 9.0
7.31000, 4.0
7.32000, 9.0
7.33000, 6.0
7.34000, 8.0
7.35000, 8.0
7.36000, 8.0
7.37000, 6.0
7.38000, 11.0
7.39000, 6.0
7.40000, 3.0
7.41000, 11.0
7.42000, 9.0
7.43000, 7.0
7.44000, 6.0
7.45000, 7.0
7.46000, 7.0
7.47000, 7.0
7.48000, 5.0
7.49000, 7.0
7.50000, 6.0
7.51000, 6.0
7.52000, 4.0
7.53000, 3.0
7.54000, 5.0
7.55000, 4.0
7.56000, 3.0
7.57000, 6.0
7.58000, 7.0
7.59000, 5.0
7.60000, 6.0
7.61000, 5.0
7.62000, 2.0
7.63000, 4.0
7.64000, 3.0
7.65000, 4.0
7.66000, 2.0
7.67000, 3.0
7.68000, 3.0
7.69000, 1.0
7.70000, 3.0
7.71000, 2.0
7.72000, 2.0
7.73000, 1.0
7.74000, 1.0
7.75000, 3.0
7.76000, 3.0
7.77000, 3.0
7.78000, 3.0
7.79000, 1.0
7.80000, 1.0
7.81000, 1.0
7.82000, 2.0
7.83000, 0.0
7.84000, 1.0
7.85000, 1.0
7.86000, 1.0
7.87000, 0.0
7.88000, 0.0
7.89000, 1.0
7.90000, 0.0
7.91000, 1.0
7.92000, 0.0
7.93000, 0.0
7.94000, 0.0
7.95000, 0.0
7.96000, 0.0
7.97000, 0.0
7.98000, 0.0
7.99000, 0.0
8.00000, 0.0
8.01000, 0.0
8.02000, 1.0
8.03000, 0.0
8.04000, 1.0
8.05000, 1.0
8.06000, 0.0
8.07000, 0.0
8.08000, 0.0
8.09000, 1.0
8.10000, 0.0
8.11000, 0.0
8.12000, 1.0
8.13000, 0.0
8.14000, 0.0
8.15000, 0.0
8.16000, 0.0
8.17000, 0.0
8.18000, 0.0
8.19000, 0.0
8.20000, 0.0
8.21000, 0.0
8.22000, 0.0
8.23000, 1.0
8.24000, 0.0
8.25000, 0.0
8.26000, 0.0
8.27000, 0.0
8.28000, 1.0
8.29000, 0.0
8.30000, 0.0
8.31000, 0.0
8.32000, 0.0
8.33000, 0.0
8.34000, 0.0
8.35000, 0.0
8.36000, 0.0
8.37000, 0.0
8.38000, 0.0
8.39000, 0.0
8.40000, 0.0
8.41000, 0.0
8.42000, 0.0
8.43000, 0.0
8.44000, 0.0
8.45000, 0.0
8.46000, 0.0
8.47000, 0.0
8.48000, 0.0
8.49000, 0.0
8.50000, 0.0
8.51000, 0.0
8.52000, 0.0
8.53000, 0.0
8.54000, 0.0
8.55000, 0.0
8.56000, 0.0
8.57000, 0.0
8.58000, 0.0
8.59000, 0.0
8.60000, 0.0
8.61000, 0.0
8.62000, 0.0
8.63000, 1.0
8.64000, 0.0
8.65000, 0.0
8.66000, 0.0
8.67000, 0.0
8.68000, 0.0
8.69000, 0.0
8.70000, 0.0
8.71000, 0.0
8.72000, 0.0
8.73000, 0.0
8.74000, 0.0
8.75000, 0.0
8.76000, 0.0
8.77000, 0.0
8.78000, 0.0
8.79000, 0.0
8.80000, 0.0
8.81000, 0.0
8.82000, 0.0
8.83000, 0.0
8.84000, 0.0
8.85000, 0.0
8.86000, 0.0
8.87000, 0.0
8.88000, 0.0
8.89000, 0.0
8.90000, 0.0
8.91000, 0.0
8.92000, 0.0
8.93000, 0.0
8.94000, 0.0
8.95000, 0.0
8.96000, 0.0
8.97000, 0.0
8.98000, 0.0
8.99000, 0.0
9.00000, 0.0
9.01000, 0.0
9.02000, 1.0
9.03000, 0.0
9.04000, 0.0
9.05000, 0.0
9.06000, 0.0
9.07000, 1.0
9.08000, 0.0
9.09000, 0.0
9.10000, 0.0
9.11000, 0.0
9.12000, 0.0
9.13000, 0.0
9.14000, 0.0
9.15000, 0.0
9.16000, 0.0
9.17000, 0.0
9.18000, 0.0
9.19000, 0.0
9.20000, 0.0
9.21000, 0.0
9.22000, 0.0
9.23000, 0.0
9.24000, 0.0
9.25000, 0.0
9.26000, 0.0
9.27000, 0.0
9.28000, 0.0
9.29000, 0.0
9.30000, 0.0
9.31000, 0.0
9.32000, 0.0
9.33000, 0.0
9.34000, 0.0
9.35000, 0.0
9.36000, 0.0
9.37000, 0.0
9.38000, 0.0
9.39000, 0.0
9.40000, 0.0
9.41000, 0.0
9.42000, 0.0
9.43000, 0.0
9.44000, 0.0
9.45000, 0.0
9.46000, 0.0
9.47000, 0.0
9.48000, 0.0
9.49000, 0.0
9.50000, 0.0
9.51000, 0.0
9.52000, 0.0
9.53000, 0.0
9.54000, 0.0
9.55000, 0.0
9.56000, 0.0
9.57000, 0.0
9.58000, 0.0
9.59000, 0.0
9.60000, 0.0
9.61000, 0.0
9.62000, 0.0
9.63000, 0.0
9.64000, 0.0
9.65000, 0.0
9.66000, 0.0
9.67000, 0.0
9.68000, 0.0
9.69000, 0.0
9.70000, 0.0
9.71000, 0.0
9.72000, 0.0
9.73000, 0.0
9.74000, 0.0
9.75000, 0.0
9.76000, 0.0
9.77000, 0.0
9.78000, 0.0
9.79000, 0.0
9.80000, 0.0
9.81000, 0.0
9.82000, 0.0
9.83000, 0.0
9.84000, 0.0
9.85000, 0.0
9.86000, 0.0
9.87000, 0.0
9.88000, 0.0
9.89000, 0.0
9.90000, 0.0
9.91000, 0.0
9.92000, 0.0
9.93000, 0.0
9.94000, 0.0
9.95000, 0.0
9.96000, 0.0
9.97000, 0.0
9.98000, 0.0
9.99000, 0.0
10.00000, 0.0
10.01000, 0.0
10.02000, 0.0
10.03000, 0.0
10.04000, 0.0
10.05000, 0.0
10.06000, 0.0
10.07000, 0.0
10.08000, 0.0
10.09000, 0.0
10.10000, 0.0
10.11000, 0.0
10.12000, 0.0
10.13000, 0.0
#ENDOFDATA   :