File: data/EDX_reports/site 4_Spectrum 9.txt
#FORMAT      : EMSA/MAS Spectral Data File
#VERSION     : 1.0
#TITLE       : Spectrum 9
#DATE        : 07-APR-2022
#TIME        : 17:09
#OWNER       :
#NPOINTS     : 1024.0
#NCOLUMNS    : 1.0
#XUNITS      : keV
#YUNITS      : counts
#DATATYPE    : XY
#XPERCHAN    : 0.01
#OFFSET      : -0.1
#SIGNALTYPE  : EDS
#CHOFFSET    : 10.0
#LIVETIME    : 99.5101
#REALTIME    : 107.528
#BEAMKV      : 10.0
#MAGCAM      : 1700.0
#XTILTSTGE   : 0.0
#AZIMANGLE   : 0.0
#ELEVANGLE   : 29.0
#XPOSITION mm: -5.2765
#YPOSITION mm: 4.4840
#ZPOSITION mm: 14.0000
##OXINSTPT   : 4
##OXINSTSTROB: 48.50
##OXINSTELEMS: 6,8,14,20,11,13,17,19,26
##OXINSTLABEL: 6, 0.277, C
##OXINSTLABEL: 8, 0.525, O
##OXINSTLABEL: 14, 1.740, Si
##OXINSTLABEL: 20, 3.692, Ca
##OXINSTLABEL: 20, 4.013, Ca
##OXINSTLABEL: 20, 0.341, Ca
##OXINSTLABEL: 20, 0.303, Ca
##OXINSTLABEL: 11, 1.041, Na
##OXINSTLABEL: 13, 1.487, Al
##OXINSTLABEL: 17, 2.622, Cl
##OXINSTLABEL: 17, 2.816, Cl
##OXINSTLABEL: 17, 0.181, Cl
##OXINSTLABEL: 19, 3.314, K
##OXINSTLABEL: 19, 3.590, K
##OXINSTLABEL: 19, 0.260, K
##OXINSTLABEL: 26, 6.404, Fe
##OXINSTLABEL: 26, 7.058, Fe
##OXINSTLABEL: 26, 0.703, Fe
##OXINSTLABEL: 26, 0.615, Fe
#SPECTRUM    : Spectral Data Starts Here
-0.10000, 0.0
-0.09000, 0.0
-0.08000, 0.0
-0.07000, 0.0
-0.06000, 0.0
-0.05000, 1.0
-0.04000, 5.0
-0.03000, 14.0
-0.02000, 59.0
-0.01000, 167.0
0.00000, 460.0
0.01000, 1110.0
0.02000, 2216.0
0.03000, 3626.0
0.04000, 4851.0
0.05000, 5097.0
0.06000, 4169.0
0.07000, 2756.0
0.08000, 1543.0
0.09000, 802.0
0.10000, 465.0
0.11000, 340.0
0.12000, 299.0
0.13000, 284.0
0.14000, 267.0
0.15000, 268.0
0.16000, 290.0
0.17000, 306.0
0.18000, 331.0
0.19000, 381.0
0.20000, 447.0
0.21000, 658.0
0.22000, 982.0
0.23000, 1524.0
0.24000, 2323.0
0.25000, 3256.0
0.26000, 4136.0
0.27000, 4483.0
0.28000, 4263.0
0.29000, 3645.0
0.30000, 2647.0
0.31000, 1708.0
0.32000, 1050.0
0.33000, 638.0
0.34000, 432.0
0.35000, 397.0
0.36000, 403.0
0.37000, 442.0
0.38000, 508.0
0.39000, 578.0
0.40000, 621.0
0.41000, 719.0
0.42000, 881.0
0.43000, 1118.0
0.44000, 1487.0
0.45000, 2350.0
0.46000, 4258.0
0.47000, 7440.0
0.48000, 12690.0
0.49000, 20363.0
0.50000, 29273.0
0.51000, 37049.0
0.52000, 40983.0
0.53000, 39541.0
0.54000, 33336.0
0.55000, 24618.0
0.56000, 15844.0
0.57000, 8985.0
0.58000, 4531.0
0.59000, 2137.0
0.60000, 1035.0
0.61000, 647.0
0.62000, 488.0
0.63000, 461.0
0.64000, 471.0
0.65000, 488.0
0.66000, 516.0
0.67000, 586.0
0.68000, 625.0
0.69000, 632.0
0.70000, 657.0
0.71000, 700.0
0.72000, 693.0
0.73000, 670.0
0.74000, 673.0
0.75000, 628.0
0.76000, 602.0
0.77000, 571.0
0.78000, 577.0
0.79000, 593.0
0.80000, 625.0
0.81000, 616.0
0.82000, 635.0
0.83000, 617.0
0.84000, 624.0
0.85000, 643.0
0.86000, 654.0
0.87000, 623.0
0.88000, 617.0
0.89000, 649.0
0.90000, 688.0
0.91000, 679.0
0.92000, 675.0
0.93000, 662.0
0.94000, 679.0
0.95000, 682.0
0.96000, 732.0
0.97000, 754.0
0.98000, 792.0
0.99000, 877.0
1.00000, 1060.0
1.01000, 1215.0
1.02000, 1396.0
1.03000, 1543.0
1.04000, 1612.0
1.05000, 1587.0
1.06000, 1477.0
1.07000, 1318.0
1.08000, 1173.0
1.09000, 1066.0
1.10000, 902.0
1.11000, 794.0
1.12000, 722.0
1.13000, 697.0
1.14000, 673.0
1.15000, 660.0
1.16000, 664.0
1.17000, 667.0
1.18000, 686.0
1.19000, 690.0
1.20000, 689.0
1.21000, 669.0
1.22000, 679.0
1.23000, 699.0
1.24000, 688.0
1.25000, 704.0
1.26000, 690.0
1.27000, 680.0
1.28000, 670.0
1.29000, 650.0
1.30000, 681.0
1.31000, 668.0
1.32000, 659.0
1.33000, 676.0
1.34000, 698.0
1.35000, 691.0
1.36000, 657.0
1.37000, 662.0
1.38000, 667.0
1.39000, 679.0
1.40000, 671.0
1.41000, 718.0
1.42000, 832.0
1.43000, 997.0
1.44000, 1189.0
1.45000, 1515.0
1.46000, 1872.0
1.47000, 2198.0
1.48000, 2426.0
1.49000, 2477.0
1.50000, 2406.0
1.51000, 2233.0
1.52000, 1963.0
1.53000, 1596.0
1.54000, 1305.0
1.55000, 1115.0
1.56000, 926.0
1.57000, 817.0
1.58000, 752.0
1.59000, 711.0
1.60000, 705.0
1.61000, 702.0
1.62000, 712.0
1.63000, 795.0
1.64000, 985.0
1.65000, 1437.0
1.66000, 2317.0
1.67000, 3903.0
1.68000, 6374.0
1.69000, 9933.0
1.70000, 14689.0
1.71000, 20135.0
1.72000, 25311.0
1.73000, 29539.0
1.74000, 31621.0
1.75000, 31215.0
1.76000, 28782.0
1.77000, 24391.0
1.78000, 19217.0
1.79000, 14245.0
1.80000, 9959.0
1.81000, 6692.0
1.82000, 4502.0
1.83000, 3052.0
1.84000, 2297.0
1.85000, 1798.0
1.86000, 1443.0
1.87000, 1159.0
1.88000, 937.0
1.89000, 787.0
1.90000, 647.0
1.91000, 528.0
1.92000, 448.0
1.93000, 437.0
1.94000, 418.0
1.95000, 417.0
1.96000, 420.0
1.97000, 370.0
1.98000, 381.0
1.99000, 397.0
2.00000, 403.0
2.01000, 401.0
2.02000, 415.0
2.03000, 390.0
2.04000, 378.0
2.05000, 376.0
2.06000, 349.0
2.07000, 333.0
2.08000, 340.0
2.09000, 328.0
2.10000, 333.0
2.11000, 338.0
2.12000, 320.0
2.13000, 298.0
2.14000, 300.0
2.15000, 312.0
2.16000, 309.0
2.17000, 307.0
2.18000, 317.0
2.19000, 307.0
2.20000, 324.0
2.21000, 347.0
2.22000, 357.0
2.23000, 364.0
2.24000, 369.0
2.25000, 367.0
2.26000, 386.0
2.27000, 387.0
2.28000, 386.0
2.29000, 369.0
2.30000, 366.0
2.31000, 357.0
2.32000, 354.0
2.33000, 373.0
2.34000, 355.0
2.35000, 329.0
2.36000, 330.0
2.37000, 317.0
2.38000, 299.0
2.39000, 283.0
2.40000, 291.0
2.41000, 295.0
2.42000, 279.0
2.43000, 286.0
2.44000, 292.0
2.45000, 272.0
2.46000, 269.0
2.47000, 280.0
2.48000, 277.0
2.49000, 253.0
2.50000, 263.0
2.51000, 291.0
2.52000, 289.0
2.53000, 306.0
2.54000, 293.0
2.55000, 294.0
2.56000, 314.0
2.57000, 363.0
2.58000, 372.0
2.59000, 397.0
2.60000, 434.0
2.61000, 470.0
2.62000, 486.0
2.63000, 508.0
2.64000, 488.0
2.65000, 472.0
2.66000, 424.0
2.67000, 367.0
2.68000, 359.0
2.69000, 317.0
2.70000, 301.0
2.71000, 315.0
2.72000, 264.0
2.73000, 256.0
2.74000, 257.0
2.75000, 251.0
2.76000, 247.0
2.77000, 247.0
2.78000, 242.0
2.79000, 227.0
2.80000, 249.0
2.81000, 250.0
2.82000, 266.0
2.83000, 254.0
2.84000, 249.0
2.85000, 251.0
2.86000, 264.0
2.87000, 244.0
2.88000, 262.0
2.89000, 231.0
2.90000, 222.0
2.91000, 227.0
2.92000, 242.0
2.93000, 229.0
2.94000, 225.0
2.95000, 225.0
2.96000, 226.0
2.97000, 237.0
2.98000, 219.0
2.99000, 210.0
3.00000, 206.0
3.01000, 220.0
3.02000, 213.0
3.03000, 213.0
3.04000, 228.0
3.05000, 234.0
3.06000, 219.0
3.07000, 218.0
3.08000, 216.0
3.09000, 212.0
3.10000, 227.0
3.11000, 224.0
3.12000, 201.0
3.13000, 188.0
3.14000, 180.0
3.15000, 204.0
3.16000, 203.0
3.17000, 187.0
3.18000, 203.0
3.19000, 202.0
3.20000, 206.0
3.21000, 222.0
3.22000, 216.0
3.23000, 233.0
3.24000, 249.0
3.25000, 245.0
3.26000, 268.0
3.27000, 311.0
3.28000, 331.0
3.29000, 358.0
3.30000, 352.0
3.31000, 388.0
3.32000, 391.0
3.33000, 355.0
3.34000, 338.0
3.35000, 342.0
3.36000, 337.0
3.37000, 311.0
3.38000, 268.0
3.39000, 242.0
3.40000, 228.0
3.41000, 212.0
3.42000, 190.0
3.43000, 191.0
3.44000, 214.0
3.45000, 202.0
3.46000, 191.0
3.47000, 199.0
3.48000, 202.0
3.49000, 220.0
3.50000, 211.0
3.51000, 197.0
3.52000, 204.0
3.53000, 202.0
3.54000, 198.0
3.55000, 199.0
3.56000, 219.0
3.57000, 225.0
3.58000, 217.0
3.59000, 240.0
3.60000, 261.0
3.61000, 285.0
3.62000, 316.0
3.63000, 353.0
3.64000, 391.0
3.65000, 491.0
3.66000, 574.0
3.67000, 628.0
3.68000, 699.0
3.69000, 723.0
3.70000, 730.0
3.71000, 707.0
3.72000, 666.0
3.73000, 580.0
3.74000, 505.0
3.75000, 426.0
3.76000, 360.0
3.77000, 291.0
3.78000, 235.0
3.79000, 206.0
3.80000, 177.0
3.81000, 164.0
3.82000, 175.0
3.83000, 156.0
3.84000, 166.0
3.85000, 154.0
3.86000, 167.0
3.87000, 146.0
3.88000, 141.0
3.89000, 151.0
3.90000, 142.0
3.91000, 149.0
3.92000, 144.0
3.93000, 152.0
3.94000, 148.0
3.95000, 145.0
3.96000, 166.0
3.97000, 171.0
3.98000, 190.0
3.99000, 193.0
4.00000, 194.0
4.01000, 208.0
4.02000, 205.0
4.03000, 192.0
4.04000, 171.0
4.05000, 172.0
4.06000, 180.0
4.07000, 162.0
4.08000, 146.0
4.09000, 146.0
4.10000, 127.0
4.11000, 138.0
4.12000, 133.0
4.13000, 134.0
4.14000, 114.0
4.15000, 119.0
4.16000, 119.0
4.17000, 123.0
4.18000, 132.0
4.19000, 129.0
4.20000, 120.0
4.21000, 121.0
4.22000, 118.0
4.23000, 116.0
4.24000, 113.0
4.25000, 111.0
4.26000, 113.0
4.27000, 116.0
4.28000, 116.0
4.29000, 105.0
4.30000, 121.0
4.31000, 124.0
4.32000, 116.0
4.33000, 118.0
4.34000, 110.0
4.35000, 118.0
4.36000, 114.0
4.37000, 112.0
4.38000, 99.0
4.39000, 117.0
4.40000, 104.0
4.41000, 106.0
4.42000, 122.0
4.43000, 109.0
4.44000, 111.0
4.45000, 126.0
4.46000, 114.0
4.47000, 111.0
4.48000, 103.0
4.49000, 115.0
4.50000, 124.0
4.51000, 119.0
4.52000, 111.0
4.53000, 122.0
4.54000, 120.0
4.55000, 106.0
4.56000, 108.0
4.57000, 96.0
4.58000, 101.0
4.59000, 112.0
4.60000, 114.0
4.61000, 108.0
4.62000, 96.0
4.63000, 105.0
4.64000, 115.0
4.65000, 98.0
4.66000, 95.0
4.67000, 92.0
4.68000, 92.0
4.69000, 92.0
4.70000, 95.0
4.71000, 105.0
4.72000, 91.0
4.73000, 89.0
4.74000, 97.0
4.75000, 93.0
4.76000, 89.0
4.77000, 98.0
4.78000, 88.0
4.79000, 87.0
4.80000, 94.0
4.81000, 97.0
4.82000, 92.0
4.83000, 94.0
4.84000, 98.0
4.85000, 90.0
4.86000, 90.0
4.87000, 100.0
4.88000, 92.0
4.89000, 94.0
4.90000, 85.0
4.91000, 82.0
4.92000, 82.0
4.93000, 79.0
4.94000, 79.0
4.95000, 83.0
4.96000, 80.0
4.97000, 91.0
4.98000, 82.0
4.99000, 82.0
5.00000, 77.0
5.01000, 78.0
5.02000, 77.0
5.03000, 79.0
5.04000, 73.0
5.05000, 85.0
5.06000, 88.0
5.07000, 90.0
5.08000, 76.0
5.09000, 66.0
5.10000, 67.0
5.11000, 78.0
5.12000, 86.0
5.13000, 75.0
5.14000, 90.0
5.15000, 87.0
5.16000, 66.0
5.17000, 71.0
5.18000, 76.0
5.19000, 72.0
5.20000, 72.0
5.21000, 64.0
5.22000, 88.0
5.23000, 90.0
5.24000, 74.0
5.25000, 73.0
5.26000, 82.0
5.27000, 73.0
5.28000, 69.0
5.29000, 72.0
5.30000, 76.0
5.31000, 65.0
5.32000, 84.0
5.33000, 74.0
5.34000, 68.0
5.35000, 67.0
5.36000, 69.0
5.37000, 69.0
5.38000, 68.0
5.39000, 72.0
5.40000, 67.0
5.41000, 76.0
5.42000, 79.0
5.43000, 88.0
5.44000, 66.0
5.45000, 67.0
5.46000, 77.0
5.47000, 76.0
5.48000, 70.0
5.49000, 61.0
5.50000, 61.0
5.51000, 63.0
5.52000, 62.0
5.53000, 59.0
5.54000, 69.0
5.55000, 72.0
5.56000, 61.0
5.57000, 66.0
5.58000, 71.0
5.59000, 76.0
5.60000, 75.0
5.61000, 70.0
5.62000, 70.0
5.63000, 70.0
5.64000, 64.0
5.65000, 60.0
5.66000, 63.0
5.67000, 64.0
5.68000, 68.0
5.69000, 61.0
5.70000, 64.0
5.71000, 59.0
5.72000, 55.0
5.73000, 48.0
5.74000, 62.0
5.75000, 64.0
5.76000, 57.0
5.77000, 58.0
5.78000, 63.0
5.79000, 62.0
5.80000, 54.0
5.81000, 56.0
5.82000, 59.0
5.83000, 60.0
5.84000, 56.0
5.85000, 59.0
5.86000, 58.0
5.87000, 65.0
5.88000, 65.0
5.89000, 59.0
5.90000, 49.0
5.91000, 50.0
5.92000, 42.0
5.93000, 49.0
5.94000, 49.0
5.95000, 47.0
5.96000, 62.0
5.97000, 61.0
5.98000, 51.0
5.99000, 49.0
6.00000, 49.0
6.01000, 59.0
6.02000, 54.0
6.03000, 46.0
6.04000, 51.0
6.05000, 49.0
6.06000, 59.0
6.07000, 48.0
6.08000, 49.0
6.09000, 54.0
6.10000, 49.0
6.11000, 47.0
6.12000, 47.0
6.13000, 50.0
6.14000, 45.0
6.15000, 51.0
6.16000, 49.0
6.17000, 48.0
6.18000, 53.0
6.19000, 56.0
6.20000, 49.0
6.21000, 49.0
6.22000, 45.0
6.23000, 50.0
6.24000, 45.0
6.25000, 50.0
6.26000, 41.0
6.27000, 43.0
6.28000, 41.0
6.29000, 40.0
6.30000, 50.0
6.31000, 57.0
6.32000, 59.0
6.33000, 59.0
6.34000, 57.0
6.35000, 63.0
6.36000, 59.0
6.37000, 60.0
6.38000, 74.0
6.39000, 72.0
6.40000, 73.0
6.41000, 71.0
6.42000, 64.0
6.43000, 74.0
6.44000, 56.0
6.45000, 63.0
6.46000, 59.0
6.47000, 65.0
6.48000, 56.0
6.49000, 54.0
6.50000, 45.0
6.51000, 47.0
6.52000, 47.0
6.53000, 52.0
6.54000, 40.0
6.55000, 44.0
6.56000, 47.0
6.57000, 38.0
6.58000, 41.0
6.59000, 48.0
6.60000, 42.0
6.61000, 40.0
6.62000, 44.0
6.63000, 43.0
6.64000, 41.0
6.65000, 45.0
6.66000, 41.0
6.67000, 39.0
6.68000, 35.0
6.69000, 37.0
6.70000, 38.0
6.71000, 35.0
6.72000, 42.0
6.73000, 33.0
6.74000, 29.0
6.75000, 35.0
6.76000, 32.0
6.77000, 33.0
6.78000, 28.0
6.79000, 37.0
6.80000, 46.0
6.81000, 38.0
6.82000, 37.0
6.83000, 27.0
6.84000, 35.0
6.85000, 34.0
6.86000, 29.0
6.87000, 30.0
6.88000, 28.0
6.89000, 27.0
6.90000, 33.0
6.91000, 32.0
6.92000, 36.0
6.93000, 28.0
6.94000, 32.0
6.95000, 33.0
6.96000, 37.0
6.97000, 36.0
6.98000, 38.0
6.99000, 32.0
7.00000, 43.0
7.01000, 42.0
7.02000, 35.0
7.03000, 35.0
7.04000, 41.0
7.05000, 45.0
7.06000, 38.0
7.07000, 31.0
7.08000, 41.0
7.09000, 36.0
7.10000, 31.0
7.11000, 33.0
7.12000, 32.0
7.13000, 38.0
7.14000, 42.0
7.15000, 28.0
7.16000, 24.0
7.17000, 19.0
7.18000, 26.0
7.19000, 31.0
7.20000, 28.0
7.21000, 26.0
7.22000, 26.0
7.23000, 27.0
7.24000, 29.0
7.25000, 28.0
7.26000, 24.0
7.27000, 24.0
7.28000, 30.0
7.29000, 33.0
7.30000, 36.0
7.31000, 25.0
7.32000, 29.0
7.33000, 23.0
7.34000, 22.0
7.35000, 28.0
7.36000, 25.0
7.37000, 27.0
7.38000, 28.0
7.39000, 25.0
7.40000, 24.0
7.41000, 30.0
7.42000, 26.0
7.43000, 26.0
7.44000, 30.0
7.45000, 24.0
7.46000, 22.0
7.47000, 22.0
7.48000, 20.0
7.49000, 35.0
7.50000, 18.0
7.51000, 25.0
7.52000, 26.0
7.53000, 21.0
7.54000, 21.0
7.55000, 26.0
7.56000, 23.0
7.57000, 27.0
7.58000, 23.0
7.59000, 28.0
7.60000, 28.0
7.61000, 25.0
7.62000, 22.0
7.63000, 26.0
7.64000, 25.0
7.65000, 30.0
7.66000, 26.0
7.67000, 20.0
7.68000, 20.0
7.69000, 23.0
7.70000, 21.0
7.71000, 24.0
7.72000, 16.0
7.73000, 20.0
7.74000, 15.0
7.75000, 19.0
7.76000, 27.0
7.77000, 21.0
7.78000, 17.0
7.79000, 21.0
7.80000, 23.0
7.81000, 25.0
7.82000, 23.0
7.83000, 16.0
7.84000, 17.0
7.85000, 18.0
7.86000, 16.0
7.87000, 11.0
7.88000, 16.0
7.89000, 13.0
7.90000, 13.0
7.91000, 17.0
7.92000, 13.0
7.93000, 13.0
7.94000, 18.0
7.95000, 14.0
7.96000, 12.0
7.97000, 16.0
7.98000, 26.0
7.99000, 15.0
8.00000, 17.0
8.01000, 17.0
8.02000, 25.0
8.03000, 18.0
8.04000, 11.0
8.05000, 15.0
8.06000, 11.0
8.07000, 15.0
8.08000, 15.0
8.09000, 14.0
8.10000, 16.0
8.11000, 14.0
8.12000, 12.0
8.13000, 13.0
8.14000, 12.0
8.15000, 14.0
8.16000, 16.0
8.17000, 15.0
8.18000, 16.0
8.19000, 17.0
8.20000, 11.0
8.21000, 11.0
8.22000, 13.0
8.23000, 12.0
8.24000, 12.0
8.25000, 12.0
8.26000, 14.0
8.27000, 16.0
8.28000, 15.0
8.29000, 9.0
8.30000, 7.0
8.31000, 12.0
8.32000, 14.0
8.33000, 9.0
8.34000, 14.0
8.35000, 19.0
8.36000, 18.0
8.37000, 10.0
8.38000, 8.0
8.39000, 6.0
8.40000, 9.0
8.41000, 11.0
8.42000, 13.0
8.43000, 17.0
8.44000, 19.0
8.45000, 13.0
8.46000, 10.0
8.47000, 12.0
8.48000, 14.0
8.49000, 11.0
8.50000, 15.0
8.51000, 8.0
8.52000, 9.0
8.53000, 12.0
8.54000, 9.0
8.55000, 12.0
8.56000, 13.0
8.57000, 18.0
8.58000, 11.0
8.59000, 7.0
8.60000, 9.0
8.61000, 12.0
8.62000, 7.0
8.63000, 11.0
8.64000, 12.0
8.65000, 10.0
8.66000, 8.0
8.67000, 8.0
8.68000, 8.0
8.69000, 11.0
8.70000, 8.0
8.71000, 7.0
8.72000, 12.0
8.73000, 10.0
8.74000, 6.0
8.75000, 7.0
8.76000, 4.0
8.77000, 12.0
8.78000, 10.0
8.79000, 10.0
8.80000, 7.0
8.81000, 5.0
8.82000, 8.0
8.83000, 6.0
8.84000, 7.0
8.85000, 5.0
8.86000, 4.0
8.87000, 4.0
8.88000, 5.0
8.89000, 12.0
8.90000, 8.0
8.91000, 7.0
8.92000, 5.0
8.93000, 8.0
8.94000, 5.0
8.95000, 6.0
8.96000, 4.0
8.97000, 11.0
8.98000, 7.0
8.99000, 4.0
9.00000, 3.0
9.01000, 3.0
9.02000, 5.0
9.03000, 5.0
9.04000, 3.0
9.05000, 5.0
9.06000, 3.0
9.07000, 4.0
9.08000, 3.0
9.09000, 5.0
9.10000, 4.0
9.11000, 5.0
9.12000, 6.0
9.13000, 3.0
9.14000, 4.0
9.15000, 7.0
9.16000, 4.0
9.17000, 1.0
9.18000, 5.0
9.19000, 2.0
9.20000, 6.0
9.21000, 2.0
9.22000, 4.0
9.23000, 3.0
9.24000, 4.0
9.25000, 3.0
9.26000, 3.0
9.27000, 1.0
9.28000, 2.0
9.29000, 1.0
9.30000, 2.0
9.31000, 2.0
9.32000, 1.0
9.33000, 1.0
9.34000, 3.0
9.35000, 5.0
9.36000, 2.0
9.37000, 1.0
9.38000, 3.0
9.39000, 5.0
9.40000, 3.0
9.41000, 3.0
9.42000, 1.0
9.43000, 2.0
9.44000, 0.0
9.45000, 2.0
9.46000, 0.0
9.47000, 1.0
9.48000, 0.0
9.49000, 0.0
9.50000, 0.0
9.51000, 0.0
9.52000, 0.0
9.53000, 1.0
9.54000, 0.0
9.55000, 1.0
9.56000, 0.0
9.57000, 0.0
9.58000, 0.0
9.59000, 1.0
9.60000, 0.0
9.61000, 0.0
9.62000, 1.0
9.63000, 0.0
9.64000, 0.0
9.65000, 0.0
9.66000, 0.0
9.67000, 0.0
9.68000, 1.0
9.69000, 0.0
9.70000, 0.0
9.71000, 0.0
9.72000, 0.0
9.73000, 0.0
9.74000, 0.0
9.75000, 0.0
9.76000, 0.0
9.77000, 0.0
9.78000, 0.0
9.79000, 0.0
9.80000, 0.0
9.81000, 0.0
9.82000, 0.0
9.83000, 0.0
9.84000, 0.0
9.85000, 0.0
9.86000, 0.0
9.87000, 0.0
9.88000, 0.0
9.89000, 0.0
9.90000, 0.0
9.91000, 0.0
9.92000, 0.0
9.93000, 0.0
9.94000, 0.0
9.95000, 0.0
9.96000, 0.0
9.97000, 1.0
9.98000, 1.0
9.99000, 0.0
10.00000, 0.0
10.01000, 0.0
10.02000, 0.0
10.03000, 0.0
10.04000, 0.0
10.05000, 0.0
10.06000, 0.0
10.07000, 0.0
10.08000, 0.0
10.09000, 0.0
10.10000, 0.0
10.11000, 0.0
10.12000, 1.0
10.13000, 0.0
#ENDOFDATA   :