File: data/EDX_reports/site 4_Spectrum 10.txt
#FORMAT      : EMSA/MAS Spectral Data File
#VERSION     : 1.0
#TITLE       : Spectrum 10
#DATE        : 07-APR-2022
#TIME        : 17:10
#OWNER       :
#NPOINTS     : 1024.0
#NCOLUMNS    : 1.0
#XUNITS      : keV
#YUNITS      : counts
#DATATYPE    : XY
#XPERCHAN    : 0.01
#OFFSET      : -0.1
#SIGNALTYPE  : EDS
#CHOFFSET    : 10.0
#LIVETIME    : 123.715
#REALTIME    : 132.227
#BEAMKV      : 10.0
#MAGCAM      : 1700.0
#XTILTSTGE   : 0.0
#AZIMANGLE   : 0.0
#ELEVANGLE   : 29.0
#XPOSITION mm: -5.2765
#YPOSITION mm: 4.4840
#ZPOSITION mm: 14.0000
##OXINSTPT   : 4
##OXINSTSTROB: 48.44
##OXINSTELEMS: 6,8,11,13,14,17,19,20,26,16
##OXINSTLABEL: 6, 0.277, C
##OXINSTLABEL: 8, 0.525, O
##OXINSTLABEL: 11, 1.041, Na
##OXINSTLABEL: 13, 1.487, Al
##OXINSTLABEL: 14, 1.740, Si
##OXINSTLABEL: 17, 2.622, Cl
##OXINSTLABEL: 17, 2.816, Cl
##OXINSTLABEL: 17, 0.181, Cl
##OXINSTLABEL: 19, 3.314, K
##OXINSTLABEL: 19, 3.590, K
##OXINSTLABEL: 19, 0.260, K
##OXINSTLABEL: 20, 3.692, Ca
##OXINSTLABEL: 20, 4.013, Ca
##OXINSTLABEL: 20, 0.341, Ca
##OXINSTLABEL: 20, 0.303, Ca
##OXINSTLABEL: 26, 6.404, Fe
##OXINSTLABEL: 26, 7.058, Fe
##OXINSTLABEL: 26, 0.703, Fe
##OXINSTLABEL: 26, 0.615, Fe
##OXINSTLABEL: 16, 2.308, S
##OXINSTLABEL: 16, 2.464, S
#SPECTRUM    : Spectral Data Starts Here
-0.10000, 0.0
-0.09000, 0.0
-0.08000, 0.0
-0.07000, 0.0
-0.06000, 0.0
-0.05000, 1.0
-0.04000, 3.0
-0.03000, 20.0
-0.02000, 55.0
-0.01000, 205.0
0.00000, 586.0
0.01000, 1394.0
0.02000, 2792.0
0.03000, 4594.0
0.04000, 6078.0
0.05000, 6468.0
0.06000, 5330.0
0.07000, 3408.0
0.08000, 1833.0
0.09000, 909.0
0.10000, 503.0
0.11000, 365.0
0.12000, 346.0
0.13000, 327.0
0.14000, 332.0
0.15000, 339.0
0.16000, 381.0
0.17000, 422.0
0.18000, 433.0
0.19000, 472.0
0.20000, 574.0
0.21000, 815.0
0.22000, 1359.0
0.23000, 2175.0
0.24000, 3349.0
0.25000, 4947.0
0.26000, 6233.0
0.27000, 6991.0
0.28000, 6879.0
0.29000, 5774.0
0.30000, 4144.0
0.31000, 2550.0
0.32000, 1492.0
0.33000, 877.0
0.34000, 588.0
0.35000, 530.0
0.36000, 582.0
0.37000, 694.0
0.38000, 792.0
0.39000, 925.0
0.40000, 927.0
0.41000, 901.0
0.42000, 921.0
0.43000, 1040.0
0.44000, 1318.0
0.45000, 2030.0
0.46000, 3363.0
0.47000, 5929.0
0.48000, 10380.0
0.49000, 16477.0
0.50000, 23649.0
0.51000, 29945.0
0.52000, 33010.0
0.53000, 32015.0
0.54000, 27153.0
0.55000, 20035.0
0.56000, 12831.0
0.57000, 7366.0
0.58000, 3830.0
0.59000, 1807.0
0.60000, 894.0
0.61000, 594.0
0.62000, 486.0
0.63000, 482.0
0.64000, 529.0
0.65000, 610.0
0.66000, 631.0
0.67000, 766.0
0.68000, 843.0
0.69000, 891.0
0.70000, 979.0
0.71000, 990.0
0.72000, 900.0
0.73000, 828.0
0.74000, 744.0
0.75000, 692.0
0.76000, 683.0
0.77000, 662.0
0.78000, 611.0
0.79000, 624.0
0.80000, 629.0
0.81000, 627.0
0.82000, 611.0
0.83000, 631.0
0.84000, 663.0
0.85000, 652.0
0.86000, 665.0
0.87000, 699.0
0.88000, 686.0
0.89000, 709.0
0.90000, 731.0
0.91000, 747.0
0.92000, 797.0
0.93000, 781.0
0.94000, 799.0
0.95000, 834.0
0.96000, 825.0
0.97000, 855.0
0.98000, 942.0
0.99000, 1095.0
1.00000, 1312.0
1.01000, 1634.0
1.02000, 2028.0
1.03000, 2299.0
1.04000, 2389.0
1.05000, 2392.0
1.06000, 2205.0
1.07000, 1875.0
1.08000, 1496.0
1.09000, 1236.0
1.10000, 1038.0
1.11000, 875.0
1.12000, 763.0
1.13000, 705.0
1.14000, 727.0
1.15000, 716.0
1.16000, 727.0
1.17000, 692.0
1.18000, 685.0
1.19000, 742.0
1.20000, 756.0
1.21000, 774.0
1.22000, 836.0
1.23000, 853.0
1.24000, 889.0
1.25000, 924.0
1.26000, 958.0
1.27000, 931.0
1.28000, 900.0
1.29000, 908.0
1.30000, 850.0
1.31000, 793.0
1.32000, 796.0
1.33000, 758.0
1.34000, 733.0
1.35000, 755.0
1.36000, 780.0
1.37000, 739.0
1.38000, 706.0
1.39000, 746.0
1.40000, 823.0
1.41000, 926.0
1.42000, 1049.0
1.43000, 1287.0
1.44000, 1587.0
1.45000, 2097.0
1.46000, 2654.0
1.47000, 3059.0
1.48000, 3329.0
1.49000, 3539.0
1.50000, 3431.0
1.51000, 3044.0
1.52000, 2633.0
1.53000, 2186.0
1.54000, 1717.0
1.55000, 1378.0
1.56000, 1152.0
1.57000, 998.0
1.58000, 897.0
1.59000, 843.0
1.60000, 789.0
1.61000, 793.0
1.62000, 797.0
1.63000, 854.0
1.64000, 1071.0
1.65000, 1484.0
1.66000, 2288.0
1.67000, 3759.0
1.68000, 6314.0
1.69000, 9889.0
1.70000, 14325.0
1.71000, 19528.0
1.72000, 24766.0
1.73000, 29038.0
1.74000, 30865.0
1.75000, 30517.0
1.76000, 27909.0
1.77000, 23665.0
1.78000, 18656.0
1.79000, 13718.0
1.80000, 9433.0
1.81000, 6494.0
1.82000, 4542.0
1.83000, 3119.0
1.84000, 2297.0
1.85000, 1780.0
1.86000, 1446.0
1.87000, 1168.0
1.88000, 950.0
1.89000, 814.0
1.90000, 667.0
1.91000, 545.0
1.92000, 516.0
1.93000, 490.0
1.94000, 442.0
1.95000, 446.0
1.96000, 455.0
1.97000, 446.0
1.98000, 458.0
1.99000, 482.0
2.00000, 465.0
2.01000, 463.0
2.02000, 464.0
2.03000, 475.0
2.04000, 448.0
2.05000, 463.0
2.06000, 439.0
2.07000, 428.0
2.08000, 413.0
2.09000, 399.0
2.10000, 408.0
2.11000, 387.0
2.12000, 373.0
2.13000, 369.0
2.14000, 372.0
2.15000, 383.0
2.16000, 382.0
2.17000, 384.0
2.18000, 377.0
2.19000, 369.0
2.20000, 390.0
2.21000, 404.0
2.22000, 406.0
2.23000, 448.0
2.24000, 464.0
2.25000, 494.0
2.26000, 548.0
2.27000, 565.0
2.28000, 628.0
2.29000, 635.0
2.30000, 674.0
2.31000, 711.0
2.32000, 683.0
2.33000, 658.0
2.34000, 633.0
2.35000, 546.0
2.36000, 482.0
2.37000, 449.0
2.38000, 411.0
2.39000, 379.0
2.40000, 374.0
2.41000, 341.0
2.42000, 369.0
2.43000, 381.0
2.44000, 361.0
2.45000, 346.0
2.46000, 337.0
2.47000, 346.0
2.48000, 348.0
2.49000, 345.0
2.50000, 350.0
2.51000, 333.0
2.52000, 321.0
2.53000, 351.0
2.54000, 394.0
2.55000, 404.0
2.56000, 416.0
2.57000, 471.0
2.58000, 528.0
2.59000, 576.0
2.60000, 638.0
2.61000, 700.0
2.62000, 749.0
2.63000, 740.0
2.64000, 747.0
2.65000, 712.0
2.66000, 627.0
2.67000, 537.0
2.68000, 513.0
2.69000, 452.0
2.70000, 410.0
2.71000, 377.0
2.72000, 319.0
2.73000, 304.0
2.74000, 303.0
2.75000, 313.0
2.76000, 332.0
2.77000, 303.0
2.78000, 293.0
2.79000, 293.0
2.80000, 311.0
2.81000, 323.0
2.82000, 310.0
2.83000, 303.0
2.84000, 313.0
2.85000, 313.0
2.86000, 314.0
2.87000, 304.0
2.88000, 309.0
2.89000, 296.0
2.90000, 282.0
2.91000, 273.0
2.92000, 278.0
2.93000, 251.0
2.94000, 240.0
2.95000, 262.0
2.96000, 271.0
2.97000, 263.0
2.98000, 272.0
2.99000, 288.0
3.00000, 280.0
3.01000, 252.0
3.02000, 253.0
3.03000, 262.0
3.04000, 259.0
3.05000, 267.0
3.06000, 257.0
3.07000, 247.0
3.08000, 224.0
3.09000, 245.0
3.10000, 248.0
3.11000, 238.0
3.12000, 245.0
3.13000, 253.0
3.14000, 263.0
3.15000, 263.0
3.16000, 238.0
3.17000, 251.0
3.18000, 256.0
3.19000, 234.0
3.20000, 254.0
3.21000, 257.0
3.22000, 263.0
3.23000, 292.0
3.24000, 311.0
3.25000, 318.0
3.26000, 341.0
3.27000, 418.0
3.28000, 465.0
3.29000, 506.0
3.30000, 535.0
3.31000, 577.0
3.32000, 584.0
3.33000, 573.0
3.34000, 568.0
3.35000, 505.0
3.36000, 444.0
3.37000, 418.0
3.38000, 359.0
3.39000, 300.0
3.40000, 265.0
3.41000, 259.0
3.42000, 262.0
3.43000, 227.0
3.44000, 222.0
3.45000, 225.0
3.46000, 249.0
3.47000, 232.0
3.48000, 245.0
3.49000, 241.0
3.50000, 233.0
3.51000, 243.0
3.52000, 250.0
3.53000, 249.0
3.54000, 247.0
3.55000, 244.0
3.56000, 234.0
3.57000, 243.0
3.58000, 256.0
3.59000, 262.0
3.60000, 285.0
3.61000, 273.0
3.62000, 308.0
3.63000, 340.0
3.64000, 370.0
3.65000, 400.0
3.66000, 432.0
3.67000, 472.0
3.68000, 509.0
3.69000, 485.0
3.70000, 479.0
3.71000, 505.0
3.72000, 481.0
3.73000, 462.0
3.74000, 399.0
3.75000, 339.0
3.76000, 291.0
3.77000, 269.0
3.78000, 243.0
3.79000, 232.0
3.80000, 208.0
3.81000, 206.0
3.82000, 196.0
3.83000, 177.0
3.84000, 175.0
3.85000, 181.0
3.86000, 205.0
3.87000, 183.0
3.88000, 185.0
3.89000, 181.0
3.90000, 173.0
3.91000, 169.0
3.92000, 174.0
3.93000, 170.0
3.94000, 184.0
3.95000, 201.0
3.96000, 201.0
3.97000, 180.0
3.98000, 208.0
3.99000, 186.0
4.00000, 185.0
4.01000, 210.0
4.02000, 211.0
4.03000, 204.0
4.04000, 190.0
4.05000, 199.0
4.06000, 196.0
4.07000, 184.0
4.08000, 175.0
4.09000, 173.0
4.10000, 165.0
4.11000, 152.0
4.12000, 144.0
4.13000, 151.0
4.14000, 157.0
4.15000, 147.0
4.16000, 150.0
4.17000, 155.0
4.18000, 129.0
4.19000, 152.0
4.20000, 145.0
4.21000, 154.0
4.22000, 145.0
4.23000, 154.0
4.24000, 172.0
4.25000, 145.0
4.26000, 155.0
4.27000, 144.0
4.28000, 150.0
4.29000, 145.0
4.30000, 152.0
4.31000, 136.0
4.32000, 146.0
4.33000, 139.0
4.34000, 146.0
4.35000, 142.0
4.36000, 145.0
4.37000, 139.0
4.38000, 148.0
4.39000, 154.0
4.40000, 154.0
4.41000, 150.0
4.42000, 140.0
4.43000, 131.0
4.44000, 142.0
4.45000, 138.0
4.46000, 133.0
4.47000, 134.0
4.48000, 149.0
4.49000, 129.0
4.50000, 144.0
4.51000, 148.0
4.52000, 135.0
4.53000, 132.0
4.54000, 149.0
4.55000, 160.0
4.56000, 138.0
4.57000, 140.0
4.58000, 134.0
4.59000, 131.0
4.60000, 117.0
4.61000, 125.0
4.62000, 130.0
4.63000, 120.0
4.64000, 112.0
4.65000, 107.0
4.66000, 106.0
4.67000, 125.0
4.68000, 116.0
4.69000, 130.0
4.70000, 123.0
4.71000, 103.0
4.72000, 128.0
4.73000, 126.0
4.74000, 115.0
4.75000, 121.0
4.76000, 134.0
4.77000, 126.0
4.78000, 110.0
4.79000, 114.0
4.80000, 115.0
4.81000, 105.0
4.82000, 114.0
4.83000, 111.0
4.84000, 125.0
4.85000, 118.0
4.86000, 107.0
4.87000, 113.0
4.88000, 110.0
4.89000, 108.0
4.90000, 113.0
4.91000, 106.0
4.92000, 110.0
4.93000, 109.0
4.94000, 109.0
4.95000, 111.0
4.96000, 99.0
4.97000, 114.0
4.98000, 125.0
4.99000, 101.0
5.00000, 95.0
5.01000, 94.0
5.02000, 102.0
5.03000, 106.0
5.04000, 99.0
5.05000, 105.0
5.06000, 108.0
5.07000, 112.0
5.08000, 105.0
5.09000, 118.0
5.10000, 102.0
5.11000, 96.0
5.12000, 98.0
5.13000, 104.0
5.14000, 105.0
5.15000, 95.0
5.16000, 96.0
5.17000, 91.0
5.18000, 90.0
5.19000, 91.0
5.20000, 96.0
5.21000, 105.0
5.22000, 91.0
5.23000, 88.0
5.24000, 100.0
5.25000, 91.0
5.26000, 91.0
5.27000, 93.0
5.28000, 85.0
5.29000, 86.0
5.30000, 94.0
5.31000, 86.0
5.32000, 83.0
5.33000, 75.0
5.34000, 93.0
5.35000, 84.0
5.36000, 86.0
5.37000, 109.0
5.38000, 96.0
5.39000, 93.0
5.40000, 93.0
5.41000, 91.0
5.42000, 85.0
5.43000, 77.0
5.44000, 83.0
5.45000, 67.0
5.46000, 64.0
5.47000, 79.0
5.48000, 74.0
5.49000, 78.0
5.50000, 79.0
5.51000, 85.0
5.52000, 80.0
5.53000, 74.0
5.54000, 73.0
5.55000, 72.0
5.56000, 74.0
5.57000, 71.0
5.58000, 71.0
5.59000, 71.0
5.60000, 82.0
5.61000, 79.0
5.62000, 82.0
5.63000, 80.0
5.64000, 69.0
5.65000, 78.0
5.66000, 84.0
5.67000, 78.0
5.68000, 86.0
5.69000, 75.0
5.70000, 80.0
5.71000, 74.0
5.72000, 71.0
5.73000, 69.0
5.74000, 73.0
5.75000, 74.0
5.76000, 74.0
5.77000, 74.0
5.78000, 85.0
5.79000, 70.0
5.80000, 73.0
5.81000, 73.0
5.82000, 73.0
5.83000, 77.0
5.84000, 74.0
5.85000, 69.0
5.86000, 69.0
5.87000, 70.0
5.88000, 73.0
5.89000, 67.0
5.90000, 69.0
5.91000, 74.0
5.92000, 68.0
5.93000, 79.0
5.94000, 74.0
5.95000, 78.0
5.96000, 68.0
5.97000, 75.0
5.98000, 74.0
5.99000, 74.0
6.00000, 65.0
6.01000, 65.0
6.02000, 67.0
6.03000, 68.0
6.04000, 67.0
6.05000, 57.0
6.06000, 53.0
6.07000, 64.0
6.08000, 67.0
6.09000, 64.0
6.10000, 67.0
6.11000, 67.0
6.12000, 67.0
6.13000, 59.0
6.14000, 54.0
6.15000, 68.0
6.16000, 72.0
6.17000, 71.0
6.18000, 69.0
6.19000, 66.0
6.20000, 62.0
6.21000, 57.0
6.22000, 57.0
6.23000, 56.0
6.24000, 56.0
6.25000, 61.0
6.26000, 72.0
6.27000, 67.0
6.28000, 71.0
6.29000, 70.0
6.30000, 64.0
6.31000, 73.0
6.32000, 84.0
6.33000, 86.0
6.34000, 70.0
6.35000, 93.0
6.36000, 95.0
6.37000, 89.0
6.38000, 100.0
6.39000, 88.0
6.40000, 103.0
6.41000, 96.0
6.42000, 92.0
6.43000, 87.0
6.44000, 82.0
6.45000, 92.0
6.46000, 83.0
6.47000, 73.0
6.48000, 74.0
6.49000, 62.0
6.50000, 54.0
6.51000, 53.0
6.52000, 58.0
6.53000, 57.0
6.54000, 47.0
6.55000, 41.0
6.56000, 45.0
6.57000, 44.0
6.58000, 48.0
6.59000, 41.0
6.60000, 38.0
6.61000, 43.0
6.62000, 49.0
6.63000, 52.0
6.64000, 49.0
6.65000, 50.0
6.66000, 50.0
6.67000, 51.0
6.68000, 47.0
6.69000, 41.0
6.70000, 41.0
6.71000, 42.0
6.72000, 39.0
6.73000, 39.0
6.74000, 42.0
6.75000, 45.0
6.76000, 40.0
6.77000, 29.0
6.78000, 29.0
6.79000, 47.0
6.80000, 44.0
6.81000, 50.0
6.82000, 41.0
6.83000, 52.0
6.84000, 39.0
6.85000, 40.0
6.86000, 41.0
6.87000, 40.0
6.88000, 37.0
6.89000, 41.0
6.90000, 41.0
6.91000, 42.0
6.92000, 39.0
6.93000, 38.0
6.94000, 30.0
6.95000, 37.0
6.96000, 41.0
6.97000, 43.0
6.98000, 45.0
6.99000, 47.0
7.00000, 44.0
7.01000, 35.0
7.02000, 38.0
7.03000, 50.0
7.04000, 42.0
7.05000, 39.0
7.06000, 45.0
7.07000, 42.0
7.08000, 44.0
7.09000, 46.0
7.10000, 48.0
7.11000, 44.0
7.12000, 35.0
7.13000, 38.0
7.14000, 34.0
7.15000, 33.0
7.16000, 30.0
7.17000, 35.0
7.18000, 39.0
7.19000, 44.0
7.20000, 27.0
7.21000, 32.0
7.22000, 39.0
7.23000, 30.0
7.24000, 40.0
7.25000, 33.0
7.26000, 35.0
7.27000, 38.0
7.28000, 33.0
7.29000, 38.0
7.30000, 36.0
7.31000, 36.0
7.32000, 34.0
7.33000, 44.0
7.34000, 40.0
7.35000, 25.0
7.36000, 24.0
7.37000, 34.0
7.38000, 34.0
7.39000, 28.0
7.40000, 22.0
7.41000, 27.0
7.42000, 26.0
7.43000, 20.0
7.44000, 22.0
7.45000, 28.0
7.46000, 25.0
7.47000, 37.0
7.48000, 34.0
7.49000, 30.0
7.50000, 26.0
7.51000, 37.0
7.52000, 33.0
7.53000, 23.0
7.54000, 22.0
7.55000, 25.0
7.56000, 21.0
7.57000, 25.0
7.58000, 22.0
7.59000, 22.0
7.60000, 28.0
7.61000, 36.0
7.62000, 33.0
7.63000, 21.0
7.64000, 22.0
7.65000, 30.0
7.66000, 23.0
7.67000, 24.0
7.68000, 19.0
7.69000, 19.0
7.70000, 25.0
7.71000, 25.0
7.72000, 20.0
7.73000, 29.0
7.74000, 29.0
7.75000, 26.0
7.76000, 19.0
7.77000, 27.0
7.78000, 25.0
7.79000, 20.0
7.80000, 24.0
7.81000, 25.0
7.82000, 27.0
7.83000, 27.0
7.84000, 22.0
7.85000, 20.0
7.86000, 25.0
7.87000, 21.0
7.88000, 20.0
7.89000, 20.0
7.90000, 33.0
7.91000, 25.0
7.92000, 18.0
7.93000, 25.0
7.94000, 24.0
7.95000, 17.0
7.96000, 20.0
7.97000, 19.0
7.98000, 26.0
7.99000, 21.0
8.00000, 21.0
8.01000, 20.0
8.02000, 22.0
8.03000, 21.0
8.04000, 19.0
8.05000, 18.0
8.06000, 19.0
8.07000, 18.0
8.08000, 15.0
8.09000, 15.0
8.10000, 21.0
8.11000, 21.0
8.12000, 15.0
8.13000, 12.0
8.14000, 25.0
8.15000, 20.0
8.16000, 15.0
8.17000, 15.0
8.18000, 20.0
8.19000, 20.0
8.20000, 25.0
8.21000, 27.0
8.22000, 24.0
8.23000, 17.0
8.24000, 20.0
8.25000, 16.0
8.26000, 15.0
8.27000, 13.0
8.28000, 14.0
8.29000, 16.0
8.30000, 10.0
8.31000, 16.0
8.32000, 16.0
8.33000, 16.0
8.34000, 17.0
8.35000, 14.0
8.36000, 13.0
8.37000, 11.0
8.38000, 13.0
8.39000, 18.0
8.40000, 17.0
8.41000, 14.0
8.42000, 21.0
8.43000, 17.0
8.44000, 14.0
8.45000, 13.0
8.46000, 11.0
8.47000, 13.0
8.48000, 19.0
8.49000, 13.0
8.50000, 17.0
8.51000, 17.0
8.52000, 14.0
8.53000, 13.0
8.54000, 19.0
8.55000, 14.0
8.56000, 14.0
8.57000, 12.0
8.58000, 13.0
8.59000, 21.0
8.60000, 10.0
8.61000, 15.0
8.62000, 12.0
8.63000, 15.0
8.64000, 9.0
8.65000, 14.0
8.66000, 15.0
8.67000, 7.0
8.68000, 10.0
8.69000, 7.0
8.70000, 12.0
8.71000, 11.0
8.72000, 9.0
8.73000, 11.0
8.74000, 10.0
8.75000, 7.0
8.76000, 8.0
8.77000, 12.0
8.78000, 12.0
8.79000, 10.0
8.80000, 6.0
8.81000, 5.0
8.82000, 11.0
8.83000, 11.0
8.84000, 6.0
8.85000, 5.0
8.86000, 10.0
8.87000, 5.0
8.88000, 3.0
8.89000, 7.0
8.90000, 8.0
8.91000, 5.0
8.92000, 4.0
8.93000, 6.0
8.94000, 4.0
8.95000, 9.0
8.96000, 12.0
8.97000, 7.0
8.98000, 8.0
8.99000, 6.0
9.00000, 7.0
9.01000, 9.0
9.02000, 9.0
9.03000, 5.0
9.04000, 6.0
9.05000, 5.0
9.06000, 6.0
9.07000, 10.0
9.08000, 9.0
9.09000, 9.0
9.10000, 7.0
9.11000, 7.0
9.12000, 7.0
9.13000, 3.0
9.14000, 4.0
9.15000, 5.0
9.16000, 6.0
9.17000, 6.0
9.18000, 4.0
9.19000, 6.0
9.20000, 2.0
9.21000, 4.0
9.22000, 1.0
9.23000, 2.0
9.24000, 4.0
9.25000, 4.0
9.26000, 5.0
9.27000, 5.0
9.28000, 5.0
9.29000, 2.0
9.30000, 1.0
9.31000, 1.0
9.32000, 5.0
9.33000, 4.0
9.34000, 6.0
9.35000, 4.0
9.36000, 1.0
9.37000, 1.0
9.38000, 2.0
9.39000, 3.0
9.40000, 1.0
9.41000, 4.0
9.42000, 2.0
9.43000, 0.0
9.44000, 1.0
9.45000, 0.0
9.46000, 1.0
9.47000, 1.0
9.48000, 1.0
9.49000, 1.0
9.50000, 3.0
9.51000, 1.0
9.52000, 2.0
9.53000, 0.0
9.54000, 1.0
9.55000, 0.0
9.56000, 0.0
9.57000, 1.0
9.58000, 0.0
9.59000, 0.0
9.60000, 0.0
9.61000, 0.0
9.62000, 0.0
9.63000, 0.0
9.64000, 1.0
9.65000, 0.0
9.66000, 0.0
9.67000, 0.0
9.68000, 0.0
9.69000, 0.0
9.70000, 0.0
9.71000, 0.0
9.72000, 0.0
9.73000, 0.0
9.74000, 0.0
9.75000, 0.0
9.76000, 0.0
9.77000, 0.0
9.78000, 0.0
9.79000, 0.0
9.80000, 0.0
9.81000, 0.0
9.82000, 0.0
9.83000, 0.0
9.84000, 0.0
9.85000, 0.0
9.86000, 0.0
9.87000, 0.0
9.88000, 1.0
9.89000, 0.0
9.90000, 1.0
9.91000, 0.0
9.92000, 0.0
9.93000, 0.0
9.94000, 0.0
9.95000, 0.0
9.96000, 0.0
9.97000, 0.0
9.98000, 0.0
9.99000, 0.0
10.00000, 0.0
10.01000, 0.0
10.02000, 0.0
10.03000, 0.0
10.04000, 0.0
10.05000, 0.0
10.06000, 0.0
10.07000, 0.0
10.08000, 0.0
10.09000, 0.0
10.10000, 0.0
10.11000, 0.0
10.12000, 0.0
10.13000, 0.0
#ENDOFDATA   :