File: data/EDX_reports/site 4_Spectrum 4.txt
#FORMAT      : EMSA/MAS Spectral Data File
#VERSION     : 1.0
#TITLE       : Spectrum 4
#DATE        : 07-APR-2022
#TIME        : 16:58
#OWNER       :
#NPOINTS     : 1024.0
#NCOLUMNS    : 1.0
#XUNITS      : keV
#YUNITS      : counts
#DATATYPE    : XY
#XPERCHAN    : 0.01
#OFFSET      : -0.1
#SIGNALTYPE  : EDS
#CHOFFSET    : 10.0
#LIVETIME    : 101.149
#REALTIME    : 109.1
#BEAMKV      : 10.0
#MAGCAM      : 1700.0
#XTILTSTGE   : 0.0
#AZIMANGLE   : 0.0
#ELEVANGLE   : 29.0
#XPOSITION mm: -5.2765
#YPOSITION mm: 4.4840
#ZPOSITION mm: 14.0000
##OXINSTPT   : 4
##OXINSTSTROB: 48.42
##OXINSTELEMS: 6,8,13,14,11,17,19
##OXINSTLABEL: 6, 0.277, C
##OXINSTLABEL: 8, 0.525, O
##OXINSTLABEL: 13, 1.487, Al
##OXINSTLABEL: 14, 1.740, Si
##OXINSTLABEL: 11, 1.041, Na
##OXINSTLABEL: 17, 2.622, Cl
##OXINSTLABEL: 17, 2.816, Cl
##OXINSTLABEL: 17, 0.181, Cl
##OXINSTLABEL: 19, 3.314, K
##OXINSTLABEL: 19, 3.590, K
##OXINSTLABEL: 19, 0.260, K
#SPECTRUM    : Spectral Data Starts Here
-0.10000, 0.0
-0.09000, 0.0
-0.08000, 0.0
-0.07000, 0.0
-0.06000, 1.0
-0.05000, 0.0
-0.04000, 3.0
-0.03000, 15.0
-0.02000, 54.0
-0.01000, 163.0
0.00000, 487.0
0.01000, 1162.0
0.02000, 2338.0
0.03000, 3742.0
0.04000, 4863.0
0.05000, 5107.0
0.06000, 4255.0
0.07000, 2835.0
0.08000, 1491.0
0.09000, 714.0
0.10000, 424.0
0.11000, 329.0
0.12000, 290.0
0.13000, 253.0
0.14000, 231.0
0.15000, 242.0
0.16000, 222.0
0.17000, 238.0
0.18000, 272.0
0.19000, 310.0
0.20000, 377.0
0.21000, 494.0
0.22000, 690.0
0.23000, 1118.0
0.24000, 1684.0
0.25000, 2345.0
0.26000, 2914.0
0.27000, 3274.0
0.28000, 3189.0
0.29000, 2557.0
0.30000, 1858.0
0.31000, 1215.0
0.32000, 777.0
0.33000, 512.0
0.34000, 355.0
0.35000, 343.0
0.36000, 342.0
0.37000, 410.0
0.38000, 480.0
0.39000, 509.0
0.40000, 588.0
0.41000, 670.0
0.42000, 815.0
0.43000, 1016.0
0.44000, 1466.0
0.45000, 2359.0
0.46000, 4101.0
0.47000, 7345.0
0.48000, 12675.0
0.49000, 20250.0
0.50000, 29119.0
0.51000, 36555.0
0.52000, 40426.0
0.53000, 39221.0
0.54000, 33159.0
0.55000, 24521.0
0.56000, 15841.0
0.57000, 8957.0
0.58000, 4477.0
0.59000, 2064.0
0.60000, 980.0
0.61000, 591.0
0.62000, 434.0
0.63000, 359.0
0.64000, 370.0
0.65000, 385.0
0.66000, 409.0
0.67000, 441.0
0.68000, 459.0
0.69000, 486.0
0.70000, 511.0
0.71000, 526.0
0.72000, 531.0
0.73000, 496.0
0.74000, 511.0
0.75000, 507.0
0.76000, 523.0
0.77000, 516.0
0.78000, 499.0
0.79000, 521.0
0.80000, 552.0
0.81000, 550.0
0.82000, 567.0
0.83000, 581.0
0.84000, 597.0
0.85000, 576.0
0.86000, 595.0
0.87000, 582.0
0.88000, 594.0
0.89000, 627.0
0.90000, 630.0
0.91000, 621.0
0.92000, 637.0
0.93000, 658.0
0.94000, 661.0
0.95000, 648.0
0.96000, 642.0
0.97000, 667.0
0.98000, 721.0
0.99000, 771.0
1.00000, 847.0
1.01000, 974.0
1.02000, 1089.0
1.03000, 1206.0
1.04000, 1266.0
1.05000, 1252.0
1.06000, 1209.0
1.07000, 1085.0
1.08000, 961.0
1.09000, 826.0
1.10000, 773.0
1.11000, 748.0
1.12000, 707.0
1.13000, 666.0
1.14000, 649.0
1.15000, 650.0
1.16000, 637.0
1.17000, 623.0
1.18000, 654.0
1.19000, 716.0
1.20000, 692.0
1.21000, 660.0
1.22000, 665.0
1.23000, 701.0
1.24000, 694.0
1.25000, 666.0
1.26000, 674.0
1.27000, 666.0
1.28000, 673.0
1.29000, 668.0
1.30000, 693.0
1.31000, 664.0
1.32000, 663.0
1.33000, 666.0
1.34000, 636.0
1.35000, 675.0
1.36000, 657.0
1.37000, 651.0
1.38000, 640.0
1.39000, 658.0
1.40000, 672.0
1.41000, 714.0
1.42000, 791.0
1.43000, 941.0
1.44000, 1118.0
1.45000, 1329.0
1.46000, 1598.0
1.47000, 1788.0
1.48000, 1931.0
1.49000, 1971.0
1.50000, 1954.0
1.51000, 1850.0
1.52000, 1617.0
1.53000, 1366.0
1.54000, 1159.0
1.55000, 969.0
1.56000, 861.0
1.57000, 793.0
1.58000, 762.0
1.59000, 742.0
1.60000, 721.0
1.61000, 715.0
1.62000, 709.0
1.63000, 820.0
1.64000, 1049.0
1.65000, 1575.0
1.66000, 2596.0
1.67000, 4322.0
1.68000, 7135.0
1.69000, 11188.0
1.70000, 16387.0
1.71000, 22419.0
1.72000, 28414.0
1.73000, 32984.0
1.74000, 35228.0
1.75000, 34816.0
1.76000, 31765.0
1.77000, 26948.0
1.78000, 21357.0
1.79000, 15665.0
1.80000, 10930.0
1.81000, 7425.0
1.82000, 4893.0
1.83000, 3361.0
1.84000, 2472.0
1.85000, 1916.0
1.86000, 1523.0
1.87000, 1177.0
1.88000, 988.0
1.89000, 782.0
1.90000, 600.0
1.91000, 505.0
1.92000, 463.0
1.93000, 396.0
1.94000, 390.0
1.95000, 358.0
1.96000, 340.0
1.97000, 349.0
1.98000, 350.0
1.99000, 358.0
2.00000, 348.0
2.01000, 352.0
2.02000, 338.0
2.03000, 334.0
2.04000, 350.0
2.05000, 321.0
2.06000, 328.0
2.07000, 331.0
2.08000, 317.0
2.09000, 299.0
2.10000, 297.0
2.11000, 300.0
2.12000, 296.0
2.13000, 304.0
2.14000, 317.0
2.15000, 312.0
2.16000, 315.0
2.17000, 321.0
2.18000, 299.0
2.19000, 332.0
2.20000, 327.0
2.21000, 326.0
2.22000, 338.0
2.23000, 346.0
2.24000, 388.0
2.25000, 398.0
2.26000, 381.0
2.27000, 366.0
2.28000, 361.0
2.29000, 380.0
2.30000, 364.0
2.31000, 348.0
2.32000, 339.0
2.33000, 299.0
2.34000, 310.0
2.35000, 312.0
2.36000, 294.0
2.37000, 286.0
2.38000, 278.0
2.39000, 263.0
2.40000, 273.0
2.41000, 274.0
2.42000, 283.0
2.43000, 285.0
2.44000, 282.0
2.45000, 283.0
2.46000, 278.0
2.47000, 278.0
2.48000, 277.0
2.49000, 294.0
2.50000, 287.0
2.51000, 273.0
2.52000, 280.0
2.53000, 278.0
2.54000, 303.0
2.55000, 289.0
2.56000, 299.0
2.57000, 320.0
2.58000, 345.0
2.59000, 389.0
2.60000, 410.0
2.61000, 428.0
2.62000, 440.0
2.63000, 449.0
2.64000, 433.0
2.65000, 410.0
2.66000, 369.0
2.67000, 341.0
2.68000, 316.0
2.69000, 313.0
2.70000, 288.0
2.71000, 253.0
2.72000, 260.0
2.73000, 242.0
2.74000, 221.0
2.75000, 234.0
2.76000, 236.0
2.77000, 249.0
2.78000, 267.0
2.79000, 241.0
2.80000, 256.0
2.81000, 256.0
2.82000, 253.0
2.83000, 248.0
2.84000, 250.0
2.85000, 239.0
2.86000, 251.0
2.87000, 255.0
2.88000, 244.0
2.89000, 228.0
2.90000, 213.0
2.91000, 219.0
2.92000, 229.0
2.93000, 246.0
2.94000, 244.0
2.95000, 220.0
2.96000, 206.0
2.97000, 212.0
2.98000, 203.0
2.99000, 192.0
3.00000, 211.0
3.01000, 199.0
3.02000, 196.0
3.03000, 187.0
3.04000, 197.0
3.05000, 207.0
3.06000, 184.0
3.07000, 208.0
3.08000, 217.0
3.09000, 188.0
3.10000, 187.0
3.11000, 189.0
3.12000, 215.0
3.13000, 220.0
3.14000, 213.0
3.15000, 186.0
3.16000, 210.0
3.17000, 210.0
3.18000, 188.0
3.19000, 178.0
3.20000, 180.0
3.21000, 206.0
3.22000, 220.0
3.23000, 213.0
3.24000, 228.0
3.25000, 214.0
3.26000, 233.0
3.27000, 263.0
3.28000, 255.0
3.29000, 278.0
3.30000, 280.0
3.31000, 299.0
3.32000, 295.0
3.33000, 320.0
3.34000, 317.0
3.35000, 257.0
3.36000, 257.0
3.37000, 262.0
3.38000, 233.0
3.39000, 229.0
3.40000, 211.0
3.41000, 204.0
3.42000, 206.0
3.43000, 201.0
3.44000, 191.0
3.45000, 205.0
3.46000, 199.0
3.47000, 188.0
3.48000, 202.0
3.49000, 213.0
3.50000, 213.0
3.51000, 213.0
3.52000, 206.0
3.53000, 189.0
3.54000, 191.0
3.55000, 182.0
3.56000, 184.0
3.57000, 209.0
3.58000, 188.0
3.59000, 172.0
3.60000, 200.0
3.61000, 190.0
3.62000, 194.0
3.63000, 187.0
3.64000, 184.0
3.65000, 191.0
3.66000, 196.0
3.67000, 180.0
3.68000, 173.0
3.69000, 177.0
3.70000, 182.0
3.71000, 172.0
3.72000, 172.0
3.73000, 179.0
3.74000, 159.0
3.75000, 178.0
3.76000, 174.0
3.77000, 147.0
3.78000, 147.0
3.79000, 162.0
3.80000, 161.0
3.81000, 142.0
3.82000, 148.0
3.83000, 146.0
3.84000, 142.0
3.85000, 134.0
3.86000, 149.0
3.87000, 147.0
3.88000, 139.0
3.89000, 139.0
3.90000, 153.0
3.91000, 147.0
3.92000, 147.0
3.93000, 130.0
3.94000, 133.0
3.95000, 129.0
3.96000, 124.0
3.97000, 134.0
3.98000, 153.0
3.99000, 156.0
4.00000, 137.0
4.01000, 132.0
4.02000, 127.0
4.03000, 125.0
4.04000, 137.0
4.05000, 140.0
4.06000, 125.0
4.07000, 143.0
4.08000, 129.0
4.09000, 111.0
4.10000, 140.0
4.11000, 134.0
4.12000, 130.0
4.13000, 129.0
4.14000, 123.0
4.15000, 141.0
4.16000, 126.0
4.17000, 121.0
4.18000, 119.0
4.19000, 119.0
4.20000, 128.0
4.21000, 133.0
4.22000, 131.0
4.23000, 116.0
4.24000, 123.0
4.25000, 121.0
4.26000, 104.0
4.27000, 116.0
4.28000, 124.0
4.29000, 132.0
4.30000, 102.0
4.31000, 101.0
4.32000, 98.0
4.33000, 109.0
4.34000, 118.0
4.35000, 115.0
4.36000, 112.0
4.37000, 134.0
4.38000, 116.0
4.39000, 103.0
4.40000, 103.0
4.41000, 120.0
4.42000, 119.0
4.43000, 120.0
4.44000, 102.0
4.45000, 103.0
4.46000, 109.0
4.47000, 96.0
4.48000, 112.0
4.49000, 114.0
4.50000, 100.0
4.51000, 105.0
4.52000, 112.0
4.53000, 104.0
4.54000, 113.0
4.55000, 103.0
4.56000, 98.0
4.57000, 98.0
4.58000, 101.0
4.59000, 96.0
4.60000, 111.0
4.61000, 106.0
4.62000, 104.0
4.63000, 109.0
4.64000, 110.0
4.65000, 103.0
4.66000, 99.0
4.67000, 113.0
4.68000, 98.0
4.69000, 86.0
4.70000, 91.0
4.71000, 106.0
4.72000, 95.0
4.73000, 94.0
4.74000, 90.0
4.75000, 88.0
4.76000, 84.0
4.77000, 90.0
4.78000, 77.0
4.79000, 87.0
4.80000, 106.0
4.81000, 107.0
4.82000, 101.0
4.83000, 105.0
4.84000, 111.0
4.85000, 95.0
4.86000, 81.0
4.87000, 84.0
4.88000, 103.0
4.89000, 92.0
4.90000, 76.0
4.91000, 77.0
4.92000, 83.0
4.93000, 90.0
4.94000, 81.0
4.95000, 78.0
4.96000, 89.0
4.97000, 90.0
4.98000, 86.0
4.99000, 91.0
5.00000, 79.0
5.01000, 73.0
5.02000, 79.0
5.03000, 77.0
5.04000, 84.0
5.05000, 81.0
5.06000, 73.0
5.07000, 80.0
5.08000, 88.0
5.09000, 94.0
5.10000, 83.0
5.11000, 76.0
5.12000, 84.0
5.13000, 81.0
5.14000, 72.0
5.15000, 72.0
5.16000, 77.0
5.17000, 84.0
5.18000, 74.0
5.19000, 75.0
5.20000, 78.0
5.21000, 83.0
5.22000, 80.0
5.23000, 77.0
5.24000, 83.0
5.25000, 79.0
5.26000, 70.0
5.27000, 84.0
5.28000, 66.0
5.29000, 74.0
5.30000, 73.0
5.31000, 71.0
5.32000, 75.0
5.33000, 72.0
5.34000, 77.0
5.35000, 69.0
5.36000, 68.0
5.37000, 87.0
5.38000, 82.0
5.39000, 71.0
5.40000, 77.0
5.41000, 78.0
5.42000, 68.0
5.43000, 65.0
5.44000, 66.0
5.45000, 66.0
5.46000, 73.0
5.47000, 77.0
5.48000, 59.0
5.49000, 68.0
5.50000, 63.0
5.51000, 60.0
5.52000, 65.0
5.53000, 58.0
5.54000, 54.0
5.55000, 55.0
5.56000, 73.0
5.57000, 66.0
5.58000, 65.0
5.59000, 57.0
5.60000, 58.0
5.61000, 54.0
5.62000, 69.0
5.63000, 58.0
5.64000, 60.0
5.65000, 70.0
5.66000, 62.0
5.67000, 75.0
5.68000, 65.0
5.69000, 50.0
5.70000, 58.0
5.71000, 58.0
5.72000, 59.0
5.73000, 59.0
5.74000, 60.0
5.75000, 62.0
5.76000, 57.0
5.77000, 56.0
5.78000, 48.0
5.79000, 47.0
5.80000, 50.0
5.81000, 43.0
5.82000, 52.0
5.83000, 61.0
5.84000, 56.0
5.85000, 62.0
5.86000, 52.0
5.87000, 51.0
5.88000, 50.0
5.89000, 51.0
5.90000, 56.0
5.91000, 56.0
5.92000, 54.0
5.93000, 55.0
5.94000, 59.0
5.95000, 54.0
5.96000, 46.0
5.97000, 59.0
5.98000, 60.0
5.99000, 60.0
6.00000, 54.0
6.01000, 46.0
6.02000, 66.0
6.03000, 60.0
6.04000, 51.0
6.05000, 55.0
6.06000, 45.0
6.07000, 46.0
6.08000, 48.0
6.09000, 45.0
6.10000, 51.0
6.11000, 52.0
6.12000, 45.0
6.13000, 50.0
6.14000, 53.0
6.15000, 40.0
6.16000, 39.0
6.17000, 47.0
6.18000, 49.0
6.19000, 56.0
6.20000, 51.0
6.21000, 45.0
6.22000, 48.0
6.23000, 49.0
6.24000, 54.0
6.25000, 43.0
6.26000, 38.0
6.27000, 44.0
6.28000, 43.0
6.29000, 48.0
6.30000, 47.0
6.31000, 41.0
6.32000, 46.0
6.33000, 45.0
6.34000, 51.0
6.35000, 46.0
6.36000, 42.0
6.37000, 60.0
6.38000, 50.0
6.39000, 48.0
6.40000, 50.0
6.41000, 42.0
6.42000, 42.0
6.43000, 50.0
6.44000, 54.0
6.45000, 41.0
6.46000, 47.0
6.47000, 36.0
6.48000, 46.0
6.49000, 49.0
6.50000, 41.0
6.51000, 43.0
6.52000, 43.0
6.53000, 31.0
6.54000, 38.0
6.55000, 37.0
6.56000, 40.0
6.57000, 39.0
6.58000, 35.0
6.59000, 43.0
6.60000, 48.0
6.61000, 38.0
6.62000, 44.0
6.63000, 52.0
6.64000, 37.0
6.65000, 41.0
6.66000, 42.0
6.67000, 33.0
6.68000, 35.0
6.69000, 37.0
6.70000, 28.0
6.71000, 27.0
6.72000, 45.0
6.73000, 34.0
6.74000, 31.0
6.75000, 36.0
6.76000, 37.0
6.77000, 31.0
6.78000, 31.0
6.79000, 30.0
6.80000, 35.0
6.81000, 33.0
6.82000, 37.0
6.83000, 40.0
6.84000, 32.0
6.85000, 28.0
6.86000, 31.0
6.87000, 30.0
6.88000, 28.0
6.89000, 28.0
6.90000, 37.0
6.91000, 35.0
6.92000, 41.0
6.93000, 42.0
6.94000, 30.0
6.95000, 29.0
6.96000, 31.0
6.97000, 33.0
6.98000, 28.0
6.99000, 37.0
7.00000, 35.0
7.01000, 27.0
7.02000, 20.0
7.03000, 26.0
7.04000, 25.0
7.05000, 32.0
7.06000, 26.0
7.07000, 25.0
7.08000, 27.0
7.09000, 31.0
7.10000, 30.0
7.11000, 36.0
7.12000, 34.0
7.13000, 32.0
7.14000, 27.0
7.15000, 32.0
7.16000, 27.0
7.17000, 29.0
7.18000, 33.0
7.19000, 28.0
7.20000, 26.0
7.21000, 30.0
7.22000, 33.0
7.23000, 32.0
7.24000, 28.0
7.25000, 33.0
7.26000, 21.0
7.27000, 25.0
7.28000, 19.0
7.29000, 19.0
7.30000, 29.0
7.31000, 29.0
7.32000, 26.0
7.33000, 25.0
7.34000, 27.0
7.35000, 30.0
7.36000, 26.0
7.37000, 21.0
7.38000, 21.0
7.39000, 13.0
7.40000, 21.0
7.41000, 23.0
7.42000, 27.0
7.43000, 26.0
7.44000, 25.0
7.45000, 20.0
7.46000, 16.0
7.47000, 18.0
7.48000, 20.0
7.49000, 21.0
7.50000, 23.0
7.51000, 26.0
7.52000, 25.0
7.53000, 23.0
7.54000, 23.0
7.55000, 15.0
7.56000, 18.0
7.57000, 19.0
7.58000, 23.0
7.59000, 27.0
7.60000, 18.0
7.61000, 16.0
7.62000, 14.0
7.63000, 19.0
7.64000, 17.0
7.65000, 25.0
7.66000, 23.0
7.67000, 20.0
7.68000, 18.0
7.69000, 13.0
7.70000, 18.0
7.71000, 16.0
7.72000, 16.0
7.73000, 21.0
7.74000, 18.0
7.75000, 14.0
7.76000, 17.0
7.77000, 16.0
7.78000, 18.0
7.79000, 15.0
7.80000, 13.0
7.81000, 17.0
7.82000, 17.0
7.83000, 15.0
7.84000, 19.0
7.85000, 22.0
7.86000, 18.0
7.87000, 26.0
7.88000, 17.0
7.89000, 15.0
7.90000, 16.0
7.91000, 17.0
7.92000, 19.0
7.93000, 22.0
7.94000, 21.0
7.95000, 14.0
7.96000, 12.0
7.97000, 5.0
7.98000, 12.0
7.99000, 18.0
8.00000, 15.0
8.01000, 14.0
8.02000, 15.0
8.03000, 9.0
8.04000, 12.0
8.05000, 17.0
8.06000, 21.0
8.07000, 17.0
8.08000, 18.0
8.09000, 15.0
8.10000, 15.0
8.11000, 16.0
8.12000, 14.0
8.13000, 19.0
8.14000, 11.0
8.15000, 11.0
8.16000, 15.0
8.17000, 17.0
8.18000, 13.0
8.19000, 8.0
8.20000, 13.0
8.21000, 13.0
8.22000, 17.0
8.23000, 19.0
8.24000, 8.0
8.25000, 18.0
8.26000, 12.0
8.27000, 7.0
8.28000, 4.0
8.29000, 12.0
8.30000, 13.0
8.31000, 14.0
8.32000, 12.0
8.33000, 14.0
8.34000, 15.0
8.35000, 11.0
8.36000, 12.0
8.37000, 13.0
8.38000, 8.0
8.39000, 10.0
8.40000, 9.0
8.41000, 11.0
8.42000, 7.0
8.43000, 5.0
8.44000, 12.0
8.45000, 8.0
8.46000, 8.0
8.47000, 7.0
8.48000, 10.0
8.49000, 13.0
8.50000, 15.0
8.51000, 15.0
8.52000, 12.0
8.53000, 9.0
8.54000, 9.0
8.55000, 9.0
8.56000, 7.0
8.57000, 5.0
8.58000, 8.0
8.59000, 10.0
8.60000, 8.0
8.61000, 10.0
8.62000, 9.0
8.63000, 7.0
8.64000, 8.0
8.65000, 10.0
8.66000, 7.0
8.67000, 7.0
8.68000, 9.0
8.69000, 6.0
8.70000, 4.0
8.71000, 6.0
8.72000, 6.0
8.73000, 9.0
8.74000, 8.0
8.75000, 9.0
8.76000, 7.0
8.77000, 7.0
8.78000, 7.0
8.79000, 6.0
8.80000, 6.0
8.81000, 5.0
8.82000, 7.0
8.83000, 8.0
8.84000, 7.0
8.85000, 5.0
8.86000, 12.0
8.87000, 9.0
8.88000, 2.0
8.89000, 3.0
8.90000, 6.0
8.91000, 8.0
8.92000, 4.0
8.93000, 5.0
8.94000, 7.0
8.95000, 5.0
8.96000, 2.0
8.97000, 3.0
8.98000, 3.0
8.99000, 5.0
9.00000, 6.0
9.01000, 3.0
9.02000, 3.0
9.03000, 5.0
9.04000, 4.0
9.05000, 2.0
9.06000, 4.0
9.07000, 3.0
9.08000, 4.0
9.09000, 2.0
9.10000, 2.0
9.11000, 4.0
9.12000, 4.0
9.13000, 4.0
9.14000, 6.0
9.15000, 4.0
9.16000, 1.0
9.17000, 2.0
9.18000, 3.0
9.19000, 2.0
9.20000, 3.0
9.21000, 2.0
9.22000, 2.0
9.23000, 1.0
9.24000, 0.0
9.25000, 2.0
9.26000, 3.0
9.27000, 2.0
9.28000, 0.0
9.29000, 1.0
9.30000, 0.0
9.31000, 0.0
9.32000, 1.0
9.33000, 3.0
9.34000, 2.0
9.35000, 0.0
9.36000, 0.0
9.37000, 0.0
9.38000, 2.0
9.39000, 0.0
9.40000, 0.0
9.41000, 0.0
9.42000, 0.0
9.43000, 1.0
9.44000, 0.0
9.45000, 0.0
9.46000, 0.0
9.47000, 0.0
9.48000, 0.0
9.49000, 0.0
9.50000, 0.0
9.51000, 1.0
9.52000, 0.0
9.53000, 0.0
9.54000, 0.0
9.55000, 1.0
9.56000, 1.0
9.57000, 0.0
9.58000, 0.0
9.59000, 0.0
9.60000, 1.0
9.61000, 0.0
9.62000, 0.0
9.63000, 0.0
9.64000, 0.0
9.65000, 0.0
9.66000, 0.0
9.67000, 0.0
9.68000, 0.0
9.69000, 1.0
9.70000, 0.0
9.71000, 0.0
9.72000, 0.0
9.73000, 0.0
9.74000, 0.0
9.75000, 0.0
9.76000, 0.0
9.77000, 0.0
9.78000, 0.0
9.79000, 0.0
9.80000, 0.0
9.81000, 0.0
9.82000, 0.0
9.83000, 0.0
9.84000, 0.0
9.85000, 1.0
9.86000, 1.0
9.87000, 1.0
9.88000, 0.0
9.89000, 0.0
9.90000, 0.0
9.91000, 0.0
9.92000, 0.0
9.93000, 0.0
9.94000, 0.0
9.95000, 0.0
9.96000, 0.0
9.97000, 0.0
9.98000, 0.0
9.99000, 0.0
10.00000, 0.0
10.01000, 2.0
10.02000, 0.0
10.03000, 0.0
10.04000, 0.0
10.05000, 0.0
10.06000, 1.0
10.07000, 0.0
10.08000, 0.0
10.09000, 0.0
10.10000, 0.0
10.11000, 0.0
10.12000, 0.0
10.13000, 0.0
#ENDOFDATA   :